timestamp,ax,ay,az,gx,gy,gz
1403636579809262870,8.147691708333333,-0.3759215833333333,-2.40262925,-0.0991347015132779,0.14730578886832138,0.02722713633111154
1403636579809328595,8.033280791666666,-0.40861041666666664,-2.40262925,-0.0991347015132779,0.14032447186034408,0.029321531433504733
1403636579809456994,7.886181041666666,-0.42495483333333334,-2.435318083333333,-0.09843656981248018,0.12775810124598494,0.03769911184307752
1403636579809496437,7.8289755833333325,-0.3759215833333333,-2.4680069166666665,-0.10262536001726656,0.11588986233242347,0.04537856055185257
1403636579809584727,7.714564666666666,-0.40861041666666664,-2.557901208333333,-0.1054178868204575,0.10821041362364843,0.05166174585903216
1403636579809898550,7.657359208333333,-0.43312704166666666,-2.6396232916666666,-0.10890854532444616,0.09773843811168245,0.056548667764616284
1403636579809944032,7.591981541666666,-0.465815875,-2.705000958333333,-0.11030480872604163,0.08587019919812101,0.0614355896702004
1403636579809978979,7.5511205,-0.4739880833333333,-2.7458620000000002,-0.114493598930828,0.0747000919853573,0.060039326268604934
1403636579810013227,7.591981541666666,-0.5148491249999999,-2.8847895416666667,-0.11100294042683936,0.057246799465414,0.06213372137099814
1403636579810047464,7.624670374999999,-0.48216029166666663,-2.9256505833333333,-0.11728612573401893,0.04677482395344803,0.0614355896702004
1403636579859392903,7.60015375,-0.53936575,-2.9338227916666666,-0.12147491593880534,0.033510321638291124,0.05375614096142535
1403636579859435643,7.714564666666666,-0.5230213333333333,-2.966511625,-0.11938052083641214,0.011868238913561441,0.041189770347066175
1403636579859471083,7.730909083333333,-0.45764366666666667,-2.9338227916666666,-0.12007865253720987,-0.0027925268031909274,0.033510321638291124
1403636579859506027,7.837147791666666,-0.4494714583333333,-2.852100708333333,-0.11728612573401893,-0.019547687622336492,0.02583087292951608
1403636579859540294,8.033280791666666,-0.42495483333333334,-2.778550833333333,-0.11030480872604163,-0.04328416544945937,0.0153588974175501
1403636579859577158,8.131347291666666,-0.4004382083333333,-2.7131731666666665,-0.1075122819228507,-0.06492624817418906,0.006283185307179587
1403636579859615580,8.253930416666666,-0.367749375,-2.655967708333333,-0.09843656981248018,-0.08168140899333462,0.0006981317007977319
1403636579859644726,8.351996916666666,-0.416782625,-2.623278875,-0.08936085770210968,-0.09354964790689606,-0.0013962634015954637
1403636579859675696,8.294791458333332,-0.35140495833333335,-2.557901208333333,-0.07819075048934597,-0.0991347015132779,-0.003490658503988659
1403636579859796377,8.213069375,-0.3840937916666667,-2.606934458333333,-0.07120943348136866,-0.1075122819228507,0.0013962634015954637
1403636579908422262,8.245758208333333,-0.40861041666666664,-2.672312125,-0.06562437987498679,-0.12147491593880534,0.009773843811168246
1403636579908595838,8.115002875,-0.44129925,-2.778550833333333,-0.06283185307179587,-0.13055062804917586,0.01815142422074103
1403636579908757778,8.025108583333333,-0.4903325,-2.8847895416666667,-0.05864306286700947,-0.1319468914507713,0.031415926535897934
1403636579908848518,8.000591958333333,-0.4494714583333333,-2.982856041666666,-0.04817108735504349,-0.1466076571675237,0.047472955654245766
1403636579909081240,7.959730916666666,-0.43312704166666666,-3.0890947499999997,-0.04049163864626844,-0.1605702911834783,0.06422811647339133
1403636579909167834,7.976075333333333,-0.40861041666666664,-3.18716125,-0.04049163864626844,-0.16755160819145562,0.07330382858376185
1403636579909332729,7.984247541666667,-0.40861041666666664,-3.2443667083333327,-0.04328416544945937,-0.17662732030182612,0.0767944870877505
1403636579909462082,7.967903124999999,-0.367749375,-3.268883333333333,-0.04468042885105484,-0.18919369091618532,0.08237954069413235
1403636579909506785,8.016936375,-0.53936575,-3.211677875,-0.04537856055185257,-0.20106192982974677,0.07400196028455958
1403636579909596191,8.164036124999999,-0.5720545833333333,-3.195333458333333,-0.039095375244672985,-0.21362830044410594,0.07120943348136866
1403636579959310386,8.302963666666667,-0.612915625,-3.170816833333333,-0.032812189937493394,-0.22270401255447644,0.06492624817418906
1403636579959348743,8.466407833333333,-0.6782932916666666,-3.1054391666666663,-0.02024581932313422,-0.2303834612632515,0.06073745796940267
1403636579959442476,8.629852,-0.5965712083333333,-3.0890947499999997,-0.010471975511965976,-0.2324778563656447,0.0614355896702004
1403636579959476991,8.695229666666666,-0.4903325,-3.0482337083333335,-0.0013962634015954637,-0.2331759880664424,0.06422811647339133
1403636579959781920,8.744262916666667,-0.465815875,-3.0318892916666664,0.00767944870877505,-0.22759093446006054,0.06492624817418906
1403636579959862770,8.760607333333333,-0.3759215833333333,-3.0482337083333335,0.00767944870877505,-0.22689280275926282,0.06911503837897544
1403636579959900465,8.687057458333333,-0.35957716666666667,-3.0727503333333335,0.00767944870877505,-0.2199114857512855,0.08168140899333462
1403636579960025379,8.638024208333333,-0.35140495833333335,-3.1299557916666663,0.004886921905584123,-0.21642082724729686,0.08936085770210968
1403636579960196086,8.621679791666667,-0.21247741666666667,-3.178989041666666,-0.0020943951023931952,-0.21851522234969004,0.10122909661567112
1403636579960285443,8.597163166666666,-0.122583125,-3.178989041666666,-0.00767944870877505,-0.2115339053417127,0.10611601852125524
1403636580008400783,8.580818749999999,-0.07354987499999999,-3.195333458333333,-0.02024581932313422,-0.21013764194011728,0.1075122819228507
1403636580008472937,8.588990958333333,-0.122583125,-3.2852277500000002,-0.029321531433504733,-0.2115339053417127,0.11100294042683936
1403636580008603419,8.523613291666665,-0.196133,-3.268883333333333,-0.03839724354387525,-0.20385445663293766,0.11379546723003027
1403636580008687937,8.499096666666667,-0.32688833333333334,-3.2280222916666665,-0.04049163864626844,-0.1954768762233649,0.12147491593880534
1403636580008851250,8.556302125,-0.53936575,-3.2361945,-0.033510321638291124,-0.19757127132575814,0.13892820845874865
1403636580008939377,8.523613291666665,-0.6864655000000001,-3.211677875,-0.020943951023931952,-0.18779742751458986,0.15219271077390556
1403636580009026144,8.580818749999999,-0.8499096666666667,-3.2361945,-0.004886921905584123,-0.18011797880581482,0.1626646862858715
1403636580009115171,8.638024208333333,-0.8662540833333333,-3.2361945,0.009773843811168246,-0.17383479349863523,0.1689478715930511
1403636580009203178,8.638024208333333,-0.8662540833333333,-3.219850083333333,0.024434609527920613,-0.1605702911834783,0.16964600329384885
1403636580009293088,8.670713041666666,-0.8253930416666666,-3.2280222916666665,0.032812189937493394,-0.1445132620651305,0.16824973989225336
1403636580069823844,8.744262916666667,-0.53936575,-3.317916583333333,0.039095375244672985,-0.13683381335635544,0.15498523757709648
1403636580069869554,8.809640583333332,-0.367749375,-3.3832942499999996,0.039095375244672985,-0.13124875974997358,0.13962634015954636
1403636580069903701,8.899534874999999,-0.17978858333333333,-3.3751220416666667,0.03420845333908886,-0.12147491593880534,0.13543754995475996
1403636580069937088,8.97308475,0.016344416666666667,-3.3996386666666667,0.017453292519943295,-0.12356931104119852,0.12985249634837812
1403636580069969994,9.030290208333332,0.10623870833333333,-3.4241552916666667,0.003490658503988659,-0.1270599695451872,0.12636183784438945
1403636580070425006,9.193734375,0.13075533333333333,-3.391466458333333,-0.013962634015954637,-0.12775810124598494,0.12217304763960307
1403636580070743273,9.422556208333333,0.16344416666666667,-3.391466458333333,-0.027925268031909273,-0.12985249634837812,0.1165879940332212
1403636580070782058,9.528794916666666,0.024516625,-3.3506054166666663,-0.03700098014227979,-0.12426744274199628,0.1075122819228507
1403636580071047288,9.626861416666666,-0.057205458333333334,-3.3506054166666663,-0.04328416544945937,-0.12356931104119852,0.09494591130849153
1403636580071301882,9.692239083333332,-0.057205458333333334,-3.366949833333333,-0.04328416544945937,-0.11728612573401893,0.09215338450530061
1403636580112663126,9.586000375,-0.220649625,-3.342433208333333,-0.041887902047863905,-0.11379546723003027,0.09215338450530061
1403636580112701438,9.553311541666666,-0.367749375,-3.391466458333333,-0.03420845333908886,-0.11030480872604163,0.0991347015132779
1403636580112740780,9.381695166666667,-0.43312704166666666,-3.415983083333333,-0.02583087292951608,-0.11100294042683936,0.12356931104119852
1403636580112775505,9.324489708333333,-0.4985047083333333,-3.415983083333333,-0.013962634015954637,-0.10821041362364843,0.14381513036433274
1403636580112809814,9.398039583333333,-0.6456044583333332,-3.489532958333333,0.0020943951023931952,-0.09843656981248018,0.1668534764906579
1403636580112838881,9.422556208333333,-0.6701210833333332,-3.6529771249999996,0.011868238913561441,-0.08936085770210968,0.182212373908208
1403636580112907445,9.389867375,-0.6456044583333332,-3.77556025,0.023736477827122883,-0.07330382858376185,0.19268434942017396
1403636580113023175,9.36535075,-0.63743225,-3.832765708333333,0.029321531433504733,-0.06283185307179587,0.19687313962496036
1403636580113058915,9.308145291666667,-0.5230213333333333,-3.8491101249999997,0.029321531433504733,-0.05794493116621174,0.19338248112097173
1403636580113093081,9.218250999999999,-0.5066769166666666,-3.881798958333333,0.0307177948351002,-0.050963614158234416,0.18430676901060122
1403636580159305398,9.242767624999999,-0.4985047083333333,-3.955348833333333,0.023038346126325153,-0.05026548245743669,0.17523105690023066
1403636580159342582,9.36535075,-0.43312704166666666,-3.9880376666666666,0.02024581932313422,-0.05235987755982988,0.16336281798666924
1403636580159432010,9.398039583333333,-0.3840937916666667,-3.898143375,0.023038346126325153,-0.050963614158234416,0.15428710587629874
1403636580159577018,9.479761666666667,-0.3759215833333333,-3.8654545416666664,0.017453292519943295,-0.05375614096142535,0.14590952546672595
1403636580159670029,9.561483749999999,-0.3840937916666667,-3.7919046666666665,0.010471975511965976,-0.05166174585903216,0.13334315485236678
1403636580159706973,9.610517,-0.4004382083333333,-3.702010375,0.003490658503988659,-0.05585053606381855,0.12566370614359174
1403636580159744063,9.659550249999999,-0.48216029166666663,-3.5549106249999998,0.006981317007977318,-0.059341194567807204,0.11519173063162574
1403636580159774270,9.749444541666666,-0.4494714583333333,-3.530394,0.00767944870877505,-0.06073745796940267,0.11309733552923257
1403636580159864763,9.773961166666666,-0.3759215833333333,-3.505877375,0.013962634015954637,-0.05864306286700947,0.1165879940332212
1403636580159953124,9.855683249999998,-0.220649625,-3.587599458333333,0.016755160819145562,-0.05585053606381855,0.124965574442794
1403636580209305239,9.929233125,-0.08989429166666667,-3.6856659583333333,0.01117010721276371,-0.05026548245743669,0.12985249634837812
1403636580209406168,9.651378041666666,-0.269682875,-3.5549106249999998,0.008377580409572781,-0.05166174585903216,0.12775810124598494
1403636580209494807,9.561483749999999,-0.4985047083333333,-3.3832942499999996,0.013962634015954637,-0.06981317007977318,0.12566370614359174
1403636580209532491,9.635033625,-0.5883989999999999,-3.5957716666666664,0.025132741228718346,-0.0747000919853573,0.1291543646475804
1403636580209566837,9.757616749999999,-0.416782625,-3.8164212916666664,0.033510321638291124,-0.07609635538695278,0.11588986233242347
1403636580209652799,9.880199875,-0.3105439166666667,-3.9390044166666667,0.028623399732707,-0.06492624817418906,0.09634217471008698
1403636580209688623,9.757616749999999,-0.26151066666666667,-3.947176625,0.01884955592153876,-0.05445427266222308,0.08866272600131193
1403636580209724487,9.545139333333333,-0.3840937916666667,-3.87362675,0.014660765716752367,-0.0635299847725936,0.07749261878854824
1403636580209814593,9.7085835,-0.4739880833333333,-3.898143375,0.0041887902047863905,-0.06422811647339133,0.056548667764616284
1403636580209851205,9.765788958333333,-0.4903325,-4.004382083333333,-0.0027925268031909274,-0.07539822368615504,0.039793506945470715
1403636580259442746,9.782133375,-0.5557101666666666,-3.955348833333333,-0.005585053606381855,-0.08168140899333462,0.030019663134302467
1403636580259480114,9.888372083333332,-0.63743225,-3.955348833333333,-0.00767944870877505,-0.07819075048934597,0.027925268031909273
1403636580259517452,9.888372083333332,-0.6047434166666666,-3.92266,-0.00767944870877505,-0.08028514559173915,0.033510321638291124
1403636580259609475,9.970094166666666,-0.5720545833333333,-3.8899711666666663,-0.0041887902047863905,-0.08447393579652555,0.041887902047863905
1403636580259645381,9.994610791666668,-0.6537766666666667,-3.8164212916666664,-0.0020943951023931952,-0.07330382858376185,0.056548667764616284
1403636580259678411,9.880199875,-0.7109821249999999,-3.77556025,-0.0027925268031909274,-0.07819075048934597,0.06702064327658225
1403636580259765742,9.839338833333333,-0.661948875,-3.759215833333333,0.004886921905584123,-0.07888888219014369,0.07190756518216637
1403636580259800983,9.724927916666667,-0.6292600416666666,-3.751043625,0.01117010721276371,-0.08098327729253688,0.07120943348136866
1403636580259884915,9.790305583333332,-0.5230213333333333,-3.8164212916666664,0.010471975511965976,-0.09285151620609833,0.06911503837897544
1403636580259917975,9.822994416666667,-0.392266,-3.881798958333333,0.006283185307179587,-0.09494591130849153,0.060039326268604934
1403636580309296888,9.765788958333333,-0.416782625,-3.9635210416666666,0.0027925268031909274,-0.0942477796076938,0.05026548245743669
1403636580309474568,9.872027666666666,-0.40861041666666664,-4.053415333333333,0.0027925268031909274,-0.10053096491487339,0.039793506945470715
1403636580309509542,9.782133375,-0.4004382083333333,-4.110620791666666,-0.0027925268031909274,-0.09983283321407566,0.024434609527920613
1403636580310289975,9.765788958333333,-0.42495483333333334,-4.175998458333333,-0.010471975511965976,-0.1075122819228507,0.006981317007977318
1403636580310332471,9.831166624999998,-0.318716125,-4.249548333333333,-0.014660765716752367,-0.12147491593880534,-0.00767944870877505
1403636580310368275,9.790305583333332,-0.29419949999999995,-4.257720541666666,-0.017453292519943295,-0.12566370614359174,-0.01884955592153876
1403636580310454700,9.765788958333333,-0.318716125,-4.306753791666666,-0.020943951023931952,-0.13753194505715316,-0.033510321638291124
1403636580310518708,9.782133375,-0.35140495833333335,-4.3312704166666665,-0.02722713633111154,-0.14381513036433274,-0.0439822971502571
1403636580310556181,9.692239083333332,-0.34323275000000003,-4.225031708333333,-0.02722713633111154,-0.15428710587629874,-0.04677482395344803
1403636580310588937,9.635033625,-0.45764366666666667,-4.175998458333333,-0.02024581932313422,-0.1556833692778942,-0.04258603374866164
1403636580359379413,9.545139333333333,-0.5148491249999999,-4.069759749999999,-0.009075712110370514,-0.15987215948268058,-0.032812189937493394
1403636580359417496,9.389867375,-0.5802267916666666,-3.979865458333333,0.0006981317007977319,-0.1759291886010284,-0.016057029118347832
1403636580359452740,9.332661916666666,-0.6701210833333332,-3.906315583333333,0.013264502315156905,-0.18570303241219666,0.010471975511965976
1403636580359483127,9.340834124999999,-0.7191543333333333,-3.87362675,0.030019663134302467,-0.1954768762233649,0.028623399732707
1403636580359534086,9.373522958333332,-0.7518431666666666,-3.8491101249999997,0.04258603374866164,-0.19687313962496036,0.04468042885105484
1403636580359569676,9.569655958333334,-0.6537766666666667,-3.906315583333333,0.05026548245743669,-0.19687313962496036,0.06073745796940267
1403636580359605556,9.684066875,-0.48216029166666663,-3.9880376666666666,0.05794493116621174,-0.20036379812894903,0.06911503837897544
1403636580359639567,9.684066875,-0.34323275000000003,-4.020726499999999,0.05864306286700947,-0.19757127132575814,0.07958701389094143
1403636580359740455,9.684066875,-0.29419949999999995,-4.0125542916666666,0.0439822971502571,-0.20245819323134223,0.09145525280450287
1403636580359775252,9.684066875,-0.23699404166666665,-4.020726499999999,0.03420845333908886,-0.210835773640915,0.09704030641088471
1403636580409318269,9.716755708333332,-0.17978858333333333,-4.028898708333333,0.02234021442552742,-0.22759093446006054,0.09564404300928926
1403636580409459980,9.790305583333332,-0.20430520833333332,-4.045243125,0.010471975511965976,-0.23527038316883564,0.08936085770210968
1403636580409496247,9.896544291666666,-0.20430520833333332,-4.110620791666666,0.0006981317007977319,-0.24504422698000386,0.0747000919853573
1403636580409584292,10.019127416666667,-0.17161637500000002,-4.1024485833333335,-0.010471975511965976,-0.25761059759436306,0.05794493116621174
1403636580409638213,10.068160666666666,-0.220649625,-4.126965208333333,-0.016755160819145562,-0.2645919146023404,0.03420845333908886
1403636580409695736,10.084505083333333,-0.22882183333333334,-4.110620791666666,-0.023038346126325153,-0.2708750999095199,0.019547687622336492
1403636580409731037,10.068160666666666,-0.24516625,-4.045243125,-0.025132741228718346,-0.2827433388230814,0.006283185307179587
1403636580409766785,10.027299625,-0.3350605416666666,-4.0615875416666665,-0.023736477827122883,-0.29251718263424964,0.0006981317007977319
1403636580409865920,10.084505083333333,-0.43312704166666666,-4.135137416666667,-0.016057029118347832,-0.3029891581462156,0.0006981317007977319
1403636580409899623,10.166227166666665,-0.4494714583333333,-4.159654041666666,-0.008377580409572781,-0.3134611336581816,0.01117010721276371
1403636580459374378,10.141710541666667,-0.5148491249999999,-4.233203916666667,0.004886921905584123,-0.31555552876057474,0.01815142422074103
1403636580459464280,10.223432625,-0.53936575,-4.314926,0.008377580409572781,-0.31974431896536115,0.02722713633111154
1403636580459555280,10.313326916666666,-0.4985047083333333,-4.4129925,0.019547687622336492,-0.3225368457685521,0.04049163864626844
1403636580459647498,10.305154708333331,-0.5883989999999999,-4.4211647083333325,0.020943951023931952,-0.3225368457685521,0.04537856055185257
1403636580459684378,10.452254458333334,-0.612915625,-4.494714583333333,0.025132741228718346,-0.3267256359733385,0.04956735075663895
1403636580459742073,10.484943291666665,-0.5148491249999999,-4.4701979583333324,0.023736477827122883,-0.3309144261781249,0.06073745796940267
1403636580459831276,10.550320958333334,-0.5311935416666667,-4.519231208333333,0.023736477827122883,-0.3309144261781249,0.07190756518216637
1403636580459866961,10.672904083333334,-0.44129925,-4.5519200416666665,0.020943951023931952,-0.33300882128051806,0.08098327729253688
1403636580459924588,10.836348249999999,-0.3350605416666666,-4.511059,0.013264502315156905,-0.3364994797845067,0.0942477796076938
1403636580459960299,10.893553708333332,-0.32688833333333334,-4.5519200416666665,0.006981317007977318,-0.3344050846821135,0.10053096491487339
1403636580508746388,10.999792416666665,-0.35957716666666667,-4.568264458333333,-0.0027925268031909274,-0.3274237676741362,0.09773843811168245
1403636580508796072,11.073342291666666,-0.367749375,-4.617297708333333,-0.009075712110370514,-0.3225368457685521,0.09215338450530061
1403636580508830324,11.03248125,-0.35957716666666667,-4.584608875,-0.013264502315156905,-0.3204424506661589,0.08447393579652555
1403636580508986959,11.048825666666666,-0.3840937916666667,-4.699019791666666,-0.0153588974175501,-0.3162536604613725,0.07120943348136866
1403636580509299433,11.106031125,-0.3105439166666667,-4.748053041666666,-0.014660765716752367,-0.3239331091701475,0.06841690667817772
1403636580509333790,11.179580999999999,-0.318716125,-4.8216029166666665,-0.012566370614359173,-0.32812189937493397,0.06213372137099814
1403636580509488054,11.42474725,-0.3840937916666667,-4.95235825,-0.016755160819145562,-0.3274237676741362,0.05585053606381855
1403636580509638467,11.588191416666666,-0.3840937916666667,-5.017735916666667,-0.010471975511965976,-0.3323106895797203,0.05864306286700947
1403636580509882531,11.710774541666666,-0.465815875,-5.083113583333333,0.0041887902047863905,-0.3295181627765294,0.06283185307179587
1403636580509917945,11.898735333333333,-0.5883989999999999,-5.173007875,0.016755160819145562,-0.3232349774693498,0.07609635538695278
1403636580559585470,12.103040541666665,-0.5066769166666666,-5.279246583333333,0.0307177948351002,-0.3113667385557884,0.09773843811168245
1403636580559623011,12.127557166666666,-0.4903325,-5.336452041666667,0.046076692252650306,-0.3057816849494065,0.11868238913561441
1403636580559661256,12.119384958333333,-0.48216029166666663,-5.410001916666666,0.050963614158234416,-0.29042278753185646,0.13683381335635544
1403636580559691139,12.176590416666667,-0.4004382083333333,-5.459035166666666,0.056548667764616284,-0.2792526803190927,0.14800392056911915
1403636580559758414,12.119384958333333,-0.2778550833333333,-5.532585041666667,0.05166174585903216,-0.2694788365079245,0.15009831567151233
1403636580559793372,12.078523916666667,-0.29419949999999995,-5.565273875,0.047472955654245766,-0.25970499269675623,0.14521139376592823
1403636580559857113,12.094868333333332,-0.2778550833333333,-5.622479333333334,0.04049163864626844,-0.24923301718479024,0.13124875974997358
1403636580559903414,11.996801833333333,-0.3105439166666667,-5.638823749999999,0.03490658503988659,-0.23457225146803787,0.1228711793404008
1403636580559939045,12.01314625,-0.367749375,-5.614307125,0.029321531433504733,-0.21572269554649914,0.1117010721276371
1403636580559973113,11.988629624999998,-0.4004382083333333,-5.679684791666666,0.023736477827122883,-0.1996656664281513,0.09983283321407566
1403636580608554108,11.955940791666666,-0.416782625,-5.622479333333334,0.028623399732707,-0.18430676901060122,0.09564404300928926
1403636580608638285,12.004974041666665,-0.4739880833333333,-5.597962708333332,0.032812189937493394,-0.16615534478986016,0.09145525280450287
1403636580608730830,12.086696124999998,-0.563882375,-5.622479333333334,0.033510321638291124,-0.1466076571675237,0.08936085770210968
1403636580608889465,12.168418208333332,-0.563882375,-5.6306515416666665,0.04677482395344803,-0.1361356816555577,0.09075712110370514
1403636580609046856,12.241968083333333,-0.6047434166666666,-5.597962708333332,0.057246799465414,-0.12007865253720987,0.09704030641088471
1403636580609135706,12.372723416666666,-0.5802267916666666,-5.597962708333332,0.06492624817418906,-0.10332349171806432,0.10262536001726656
1403636580609296341,12.397240041666667,-0.48216029166666663,-5.6306515416666665,0.06702064327658225,-0.08656833089891874,0.10890854532444616
1403636580609458958,12.348206791666668,-0.5148491249999999,-5.614307125,0.06632251157578452,-0.06283185307179587,0.11309733552923257
1403636580609617225,12.307345749999998,-0.563882375,-5.622479333333334,0.06632251157578452,-0.04328416544945937,0.11309733552923257
1403636580609703762,12.20927925,-0.4903325,-5.6306515416666665,0.06422811647339133,-0.029321531433504733,0.11588986233242347
1403636580658636058,12.070351708333332,-0.465815875,-5.622479333333334,0.05585053606381855,-0.006981317007977318,0.11030480872604163
1403636580658809415,11.923251958333333,-0.465815875,-5.606134916666666,0.04468042885105484,0.006981317007977318,0.1054178868204575
1403636580658895923,11.825185458333332,-0.4004382083333333,-5.557101666666666,0.03630284844148206,0.021642082724729686,0.09773843811168245
1403636580658987814,11.645396875,-0.43312704166666666,-5.508068416666666,0.023736477827122883,0.03630284844148206,0.09075712110370514
1403636580659226964,11.555502583333332,-0.5557101666666666,-5.450862958333333,0.011868238913561441,0.04817108735504349,0.08098327729253688
1403636580659391231,11.620880249999999,-0.5557101666666666,-5.385485291666667,0.0006981317007977319,0.0635299847725936,0.07260569688296412
1403636580659549521,11.514641541666665,-0.6047434166666666,-5.3201076249999995,-0.0041887902047863905,0.07400196028455958,0.06841690667817772
1403636580659636758,11.547330375,-0.6864655000000001,-5.262902166666666,-0.008377580409572781,0.08168140899333462,0.06632251157578452
1403636580659792826,11.653569083333332,-0.5965712083333333,-5.2710743749999995,-0.013264502315156905,0.09773843811168245,0.06492624817418906
1403636580659947329,11.629052458333332,-0.563882375,-5.1975245,-0.013962634015954637,0.10611601852125524,0.0635299847725936
1403636580709539242,11.629052458333332,-0.4985047083333333,-5.107630208333333,-0.017453292519943295,0.11798425743481668,0.05864306286700947
1403636580709578028,11.686257916666666,-0.4494714583333333,-5.115802416666666,-0.02234021442552742,0.12636183784438945,0.05585053606381855
1403636580709616114,11.645396875,-0.34323275000000003,-5.083113583333333,-0.028623399732707,0.13683381335635544,0.04677482395344803
1403636580709647001,11.539158166666667,-0.318716125,-5.074941374999999,-0.03420845333908886,0.14800392056911915,0.03490658503988659
1403636580709697975,11.481952708333333,-0.26151066666666667,-5.099458,-0.04328416544945937,0.16196655458507375,0.01884955592153876
1403636580709747325,11.343025166666667,-0.11441091666666667,-5.099458,-0.05585053606381855,0.1710422666954443,0.006981317007977318
1403636580709828806,11.204097625,-0.08989429166666667,-5.0912857916666665,-0.06632251157578452,0.18151424220741028,-0.0020943951023931952
1403636580709864588,11.048825666666666,-0.122583125,-5.074941374999999,-0.0767944870877505,0.19338248112097173,-0.010471975511965976
1403636580709899419,10.844520458333331,-0.17161637500000002,-4.993219291666667,-0.08028514559173915,0.1954768762233649,-0.01815142422074103
1403636580709933543,10.738281749999999,-0.29419949999999995,-5.0013914999999995,-0.08307767239493008,0.2059488517353309,-0.027925268031909273
1403636580759533647,10.803659416666665,-0.35957716666666667,-4.985047083333333,-0.08656833089891874,0.20874137853852182,-0.039793506945470715
1403636580759649433,10.754626166666666,-0.34323275000000003,-4.9114972083333335,-0.08447393579652555,0.21362830044410594,-0.041189770347066175
1403636580759740113,10.721937333333331,-0.318716125,-4.788914083333333,-0.08517206749732328,0.22479840765686968,-0.0439822971502571
1403636580759777155,10.762798375,-0.32688833333333334,-4.75622525,-0.08377580409572781,0.2282890661608583,-0.04956735075663895
1403636580759838523,10.885381500000001,-0.24516625,-4.715364208333333,-0.08656833089891874,0.23177972466484695,-0.04956735075663895
1403636580759874335,10.893553708333332,-0.17978858333333333,-4.641814333333333,-0.09145525280450287,0.23457225146803787,-0.046076692252650306
1403636580759908918,10.958931374999999,-0.16344416666666667,-4.625469916666667,-0.09634217471008698,0.23596851486963336,-0.03839724354387525
1403636580759942832,11.016136833333332,-0.122583125,-4.584608875,-0.10611601852125524,0.23596851486963336,-0.032114058236695664
1403636580759977606,11.016136833333332,-0.17161637500000002,-4.543747833333333,-0.1096066770252439,0.23876104167282428,-0.033510321638291124
1403636580760012978,11.03248125,-0.18796079166666665,-4.6009532916666664,-0.12077678423800758,0.24434609527920614,-0.04468042885105484
1403636580809421259,10.942586958333331,-0.196133,-4.658158749999999,-0.13473941825396224,0.249931148885588,-0.05026548245743669
1403636580809555229,10.6892485,-0.2860272916666666,-4.649986541666666,-0.13753194505715316,0.25970499269675623,-0.056548667764616284
1403636580809646695,10.476771083333333,-0.32688833333333334,-4.674503166666667,-0.14032447186034408,0.26878070480712674,-0.05305800926062762
1403636580809739496,10.288810291666666,-0.416782625,-4.699019791666666,-0.13962634015954636,0.2708750999095199,-0.041887902047863905
1403636580809776312,9.978266375,-0.32688833333333334,-4.690847583333333,-0.13823007675795088,0.2757620218151041,-0.03560471674068433
1403636580809818135,9.855683249999998,-0.367749375,-4.682675375,-0.13334315485236678,0.2834414705238791,-0.028623399732707
1403636580809906932,9.831166624999998,-0.3350605416666666,-4.748053041666666,-0.13683381335635544,0.2869321290278678,-0.029321531433504733
1403636580809939767,9.847511041666666,-0.20430520833333332,-4.731708625,-0.14381513036433274,0.2841396022246769,-0.03490658503988659
1403636580810032989,9.872027666666666,-0.3105439166666667,-4.658158749999999,-0.1556833692778942,0.2841396022246769,-0.048869219055841226
1403636580810122376,9.970094166666666,-0.34323275000000003,-4.617297708333333,-0.16824973989225336,0.29042278753185646,-0.06981317007977318
1403636580859355687,10.019127416666667,-0.32688833333333334,-4.5519200416666665,-0.17383479349863523,0.29251718263424964,-0.07260569688296412
1403636580859567848,10.027299625,-0.32688833333333334,-4.429336916666666,-0.17732545200262387,0.29391344603584507,-0.06771877497737998
1403636580859604461,10.125366125,-0.3105439166666667,-4.339442625,-0.18151424220741028,0.3008947630438224,-0.05166174585903216
1403636580859638488,10.231604833333332,-0.29419949999999995,-4.274064958333334,-0.1864011641129944,0.30019663134302466,-0.03490658503988659
1403636580860560796,10.24794925,-0.2533384583333333,-4.184170666666667,-0.19477874452256716,0.3043854215478111,-0.027925268031909273
1403636580860600480,10.182571583333333,-0.220649625,-4.143309625,-0.19896753472735357,0.3113667385557884,-0.032812189937493394
1403636580860690409,10.035471833333334,-0.17978858333333333,-4.135137416666667,-0.20664698343612864,0.325329372571743,-0.04049163864626844
1403636580860761868,9.749444541666666,-0.024516625,-4.077931958333333,-0.2150245638457014,0.33300882128051806,-0.04677482395344803
1403636580860846093,9.496106083333332,0.024516625,-4.077931958333333,-0.22479840765686968,0.3364994797845067,-0.05794493116621174
1403636580860878101,9.210078791666666,0.032688833333333334,-4.0615875416666665,-0.23736477827122882,0.3385938748868999,-0.0747000919853573
1403636580908623817,8.940395916666665,-0.016344416666666667,-4.0615875416666665,-0.24853488548399255,0.3364994797845067,-0.07609635538695278
1403636580908902923,8.719746291666667,-0.14709974999999997,-4.045243125,-0.25202554398798116,0.33719761148530447,-0.07330382858376185
1403636580909131295,8.638024208333333,-0.22882183333333334,-4.053415333333333,-0.2555162024919699,0.3344050846821135,-0.07260569688296412
1403636580909360340,8.482752249999999,-0.2860272916666666,-4.004382083333333,-0.24853488548399255,0.33161255787892263,-0.07260569688296412
1403636580909665276,8.466407833333333,-0.3759215833333333,-3.930832208333333,-0.24713862208239704,0.3323106895797203,-0.0747000919853573
1403636580909830709,8.539957708333333,-0.43312704166666666,-3.979865458333333,-0.239459173373622,0.3274237676741362,-0.0747000919853573
1403636580910061532,8.613507583333332,-0.4739880833333333,-3.955348833333333,-0.2303834612632515,0.3288200310757317,-0.07260569688296412
1403636580910220701,8.67888525,-0.5475379583333333,-3.881798958333333,-0.22200588085367873,0.3232349774693498,-0.06283185307179587
1403636580910446483,8.842329416666665,-0.6047434166666666,-3.8654545416666664,-0.20874137853852182,0.3274237676741362,-0.05026548245743669
1403636580910611032,8.940395916666665,-0.612915625,-3.8245934999999998,-0.19058995431778078,0.3239331091701475,-0.03630284844148206
1403636580959523738,8.997601374999999,-0.5230213333333333,-3.751043625,-0.17243853009703977,0.3225368457685521,-0.01815142422074103
1403636580959559238,9.013945791666666,-0.5066769166666666,-3.6856659583333333,-0.14800392056911915,0.32812189937493397,0.0
1403636580959651170,9.013945791666666,-0.3759215833333333,-3.742871416666666,-0.1319468914507713,0.3274237676741362,0.012566370614359173
1403636580959722941,8.825985,-0.29419949999999995,-3.702010375,-0.11798425743481668,0.33161255787892263,0.01815142422074103
1403636580959810866,8.646196416666667,-0.29419949999999995,-3.67749375,-0.10332349171806432,0.3392920065876977,0.01884955592153876
1403636580959843339,8.401030166666667,-0.22882183333333334,-3.6693215416666662,-0.0991347015132779,0.33719761148530447,0.01884955592153876
1403636580959930655,8.204897166666667,-0.13075533333333333,-3.6856659583333333,-0.09145525280450287,0.33161255787892263,0.016755160819145562
1403636580959967734,8.155863916666666,-0.08989429166666667,-3.7346992083333332,-0.08447393579652555,0.3344050846821135,0.013264502315156905
1403636580960002121,8.164036124999999,-0.016344416666666667,-3.77556025,-0.07539822368615504,0.3309144261781249,0.0041887902047863905
1403636580960036313,8.123175083333333,0.122583125,-3.751043625,-0.07260569688296412,0.3232349774693498,-0.006981317007977318
1403636581009182725,8.074141833333334,0.220649625,-3.6448049166666663,-0.06911503837897544,0.314857397059777,-0.019547687622336492
1403636581009233229,8.115002875,0.220649625,-3.546738416666667,-0.07190756518216637,0.30857421175259747,-0.033510321638291124
1403636581009356669,8.147691708333333,0.23699404166666665,-3.4650163333333333,-0.06911503837897544,0.3050835532486088,-0.032812189937493394
1403636581009389214,8.057797416666666,0.13892754166666665,-3.415983083333333,-0.05585053606381855,0.30647981665020424,-0.024434609527920613
1403636581009480530,8.065969625,-0.04086104166666667,-3.358777625,-0.0439822971502571,0.3078760800517997,-0.0027925268031909274
1403636581009517128,7.992419749999999,-0.15527195833333335,-3.3015721666666664,-0.023736477827122883,0.3043854215478111,0.014660765716752367
1403636581009551748,7.910697666666666,-0.18796079166666665,-3.195333458333333,-0.006981317007977318,0.31066860685499065,0.023736477827122883
1403636581009585214,7.992419749999999,-0.2533384583333333,-3.211677875,0.005585053606381855,0.30857421175259747,0.03630284844148206
1403636581010939508,7.992419749999999,-0.21247741666666667,-3.2525389166666665,0.020943951023931952,0.30159289474462014,0.05166174585903216
1403636581010978967,7.9433865,-0.13892754166666665,-3.178989041666666,0.029321531433504733,0.2932153143350474,0.0747000919853573
1403636581059109416,7.886181041666666,-0.10623870833333333,-3.1299557916666663,0.03490658503988659,0.2876302607286655,0.09843656981248018
1403636581059155574,8.065969625,-0.032688833333333334,-3.1299557916666663,0.039095375244672985,0.28064894372068816,0.12775810124598494
1403636581060230293,8.270274833333334,0.024516625,-3.2035056666666666,0.03839724354387525,0.28204520712228365,0.153588974175501
1403636581060271327,8.425546791666665,0.024516625,-3.195333458333333,0.04049163864626844,0.29251718263424964,0.16615534478986016
1403636581060311481,8.5317855,0.11441091666666667,-3.3506054166666663,0.039793506945470715,0.3008947630438224,0.16196655458507375
1403636581070977121,8.5317855,0.3023717083333333,-3.366949833333333,0.04049163864626844,0.3022910264454179,0.1424188669627373
1403636581071016019,8.425546791666665,0.43312704166666666,-3.3506054166666663,0.03700098014227979,0.30647981665020424,0.11728612573401893
1403636581071066775,8.392857958333332,0.5066769166666666,-3.342433208333333,0.033510321638291124,0.29949849964222697,0.08307767239493008
1403636581071103587,8.311135875,0.6537766666666667,-3.3751220416666667,0.02583087292951608,0.28832839242946323,0.0635299847725936
1403636581071153519,8.327480291666665,0.6946377083333333,-3.317916583333333,0.01884955592153876,0.278554548618295,0.05445427266222308
1403636581108639780,8.351996916666666,0.5557101666666666,-3.293399958333333,0.010471975511965976,0.27715828521669955,0.04537856055185257
1403636581108682844,8.376513541666666,0.4903325,-3.2525389166666665,0.0027925268031909274,0.2715732316103177,0.03839724354387525
1403636581108718479,8.311135875,0.3759215833333333,-3.1299557916666663,0.0020943951023931952,0.2708750999095199,0.033510321638291124
1403636581108810246,8.270274833333334,0.3105439166666667,-3.0482337083333335,-0.0006981317007977319,0.28064894372068816,0.032812189937493394
1403636581108954348,8.196724958333332,0.2533384583333333,-3.0318892916666664,-0.009773843811168246,0.2827433388230814,0.04328416544945937
1403636581108990724,8.065969625,0.196133,-2.8847895416666667,-0.012566370614359173,0.2778564169174973,0.06422811647339133
1403636581109024333,7.967903124999999,0.10623870833333333,-2.778550833333333,-0.01884955592153876,0.278554548618295,0.09843656981248018
1403636581109122885,8.025108583333333,0.0,-2.7948952499999997,-0.023736477827122883,0.27715828521669955,0.14102260356114182
1403636581109243829,8.082314041666667,0.016344416666666667,-2.8194118749999997,-0.03420845333908886,0.2841396022246769,0.1780235837034216
1403636581109278464,8.213069375,0.08989429166666667,-2.827584083333333,-0.039793506945470715,0.2981022362406315,0.20385445663293766
1403636581159478092,8.237585999999999,0.057205458333333334,-2.8929617499999996,-0.05026548245743669,0.3127630019573839,0.2303834612632515
1403636581159514742,8.155863916666666,0.024516625,-2.9093061666666666,-0.060039326268604934,0.32812189937493397,0.23806290997202653
1403636581159574904,7.976075333333333,0.016344416666666667,-2.9174783749999995,-0.05585053606381855,0.33510321638291124,0.24434609527920614
1403636581159611960,7.967903124999999,0.04903325,-3.0318892916666664,-0.05026548245743669,0.33719761148530447,0.24504422698000386
1403636581159651366,8.082314041666667,0.14709974999999997,-3.18716125,-0.04468042885105484,0.3427826650916863,0.23876104167282428
1403636581159682851,8.025108583333333,0.23699404166666665,-3.260711125,-0.03420845333908886,0.3392920065876977,0.23108159296404923
1403636581159714392,8.041452999999999,0.2860272916666666,-3.334261,-0.02652900463031381,0.34417892849328174,0.21851522234969004
1403636581159742761,8.074141833333334,0.40861041666666664,-3.366949833333333,-0.016057029118347832,0.3392920065876977,0.19687313962496036
1403636581159864204,8.041452999999999,0.465815875,-3.293399958333333,-0.010471975511965976,0.3385938748868999,0.17034413499464657
1403636581159900456,7.976075333333333,0.416782625,-3.178989041666666,0.0013962634015954637,0.3364994797845067,0.1466076571675237
1403636581209149553,7.959730916666666,0.45764366666666667,-3.1054391666666663,0.006981317007977318,0.3288200310757317,0.1228711793404008
1403636581209226185,7.902525458333333,0.44129925,-3.023717083333333,0.013962634015954637,0.3302162944773272,0.11519173063162574
1403636581209261391,7.820803375,0.4004382083333333,-2.982856041666666,0.010471975511965976,0.33161255787892263,0.11239920382843484
1403636581209292767,7.84532,0.35957716666666667,-2.966511625,0.006981317007977318,0.335801348083709,0.11588986233242347
1403636581209382515,7.8289755833333325,0.2860272916666666,-2.9174783749999995,-0.0006981317007977319,0.3392920065876977,0.11938052083641214
1403636581209424523,7.714564666666666,0.17978858333333333,-2.811239666666667,-0.009075712110370514,0.34348079679248406,0.12845623294678266
1403636581209460196,7.706392458333333,0.057205458333333334,-2.7703786249999998,-0.021642082724729686,0.346273323595675,0.13892820845874865
1403636581210660426,7.714564666666666,-0.04086104166666667,-2.705000958333333,-0.03490658503988659,0.34417892849328174,0.15917402778188286
1403636581210698418,7.788114541666666,-0.08989429166666667,-2.655967708333333,-0.046076692252650306,0.34417892849328174,0.182212373908208
1403636581210732569,7.9188698749999995,-0.22882183333333334,-2.6477955,-0.05235987755982988,0.3553490357060455,0.1996656664281513
1403636581259431838,8.082314041666667,-0.2778550833333333,-2.7376897916666665,-0.05375614096142535,0.36302848441482055,0.2192133540504878
1403636581259469654,8.115002875,-0.26151066666666667,-2.7948952499999997,-0.05235987755982988,0.3769911184307752,0.23527038316883564
1403636581259504894,8.057797416666666,-0.17978858333333333,-2.8602729166666667,-0.0439822971502571,0.39793506945470714,0.24504422698000386
1403636581259540560,7.959730916666666,-0.08989429166666667,-2.966511625,-0.03420845333908886,0.40491638646268446,0.23876104167282428
1403636581259577778,7.84532,0.016344416666666667,-2.982856041666666,-0.02722713633111154,0.40142572795869574,0.2241002759560719
1403636581259610383,7.641014791666667,0.04086104166666667,-2.982856041666666,-0.019547687622336492,0.3909537524467298,0.210835773640915
1403636581259639481,7.559292708333333,0.0,-2.999200458333333,-0.00767944870877505,0.37768925013157295,0.19338248112097173
1403636581259858019,7.567464916666665,0.024516625,-2.99102825,0.0020943951023931952,0.36302848441482055,0.1710422666954443
1403636581259956917,7.583809333333333,-0.024516625,-3.0073726666666665,0.017453292519943295,0.35465090400524774,0.14800392056911915
1403636581259989752,7.591981541666666,-0.08172208333333333,-2.982856041666666,0.033510321638291124,0.3518583772020568,0.12217304763960307
1403636581308376175,7.5102594583333335,-0.008172208333333333,-2.9093061666666666,0.04328416544945937,0.3511602455012591,0.09704030641088471
1403636581308575728,7.265093208333333,0.032688833333333334,-2.7622064166666664,0.05166174585903216,0.3511602455012591,0.07749261878854824
1403636581308647957,6.979065916666666,0.04903325,-2.655967708333333,0.05235987755982988,0.35046211380046133,0.05864306286700947
1403636581308882615,6.856482791666667,0.04086104166666667,-2.6477955,0.048869219055841226,0.3399901382884954,0.046076692252650306
1403636581309044217,6.684866416666666,0.024516625,-2.549729,0.03630284844148206,0.3274237676741362,0.0307177948351002
1403636581309203495,6.537766666666666,-0.032688833333333334,-2.459834708333333,0.021642082724729686,0.3246312408709453,0.023736477827122883
1403636581309387540,6.42335575,-0.11441091666666667,-2.4108014583333333,0.004886921905584123,0.3162536604613725,0.02652900463031381
1403636581309547563,6.317117041666666,-0.16344416666666667,-2.3127349583333334,-0.008377580409572781,0.3204424506661589,0.03490658503988659
1403636581309590224,6.202706124999999,-0.35957716666666667,-2.1166019583333333,-0.014660765716752367,0.31695179216217023,0.04468042885105484
1403636581309717036,6.235394958333333,-0.53936575,-2.0267076666666664,-0.023038346126325153,0.30927234345339516,0.057246799465414
1403636581359391141,6.292600416666667,-0.5230213333333333,-1.9776744166666664,-0.02234021442552742,0.3078760800517997,0.07051130178057091
1403636581359428205,6.276256,-0.5230213333333333,-1.887780125,-0.01815142422074103,0.2981022362406315,0.08587019919812101
1403636581359517393,6.32528925,-0.392266,-1.8224024583333331,-0.016755160819145562,0.2932153143350474,0.09843656981248018
1403636581359554637,6.3089448333333324,-0.21247741666666667,-1.7978858333333332,-0.0153588974175501,0.2778564169174973,0.10681415022205297
1403636581359586761,6.276256,-0.04903325,-1.765197,-0.012566370614359173,0.260403124397554,0.10681415022205297
1403636581359661152,6.251739374999999,-0.008172208333333333,-1.6998193333333333,-0.019547687622336492,0.249931148885588,0.10192722831646883
1403636581359751242,6.22722275,0.024516625,-1.7079915416666664,-0.020943951023931952,0.22968532956245377,0.09215338450530061
1403636581359787524,6.161845083333333,0.08989429166666667,-1.7161637499999998,-0.023038346126325153,0.21781709064889232,0.08098327729253688
1403636581359829043,6.055606375,0.16344416666666667,-1.6998193333333333,-0.02652900463031381,0.20036379812894903,0.06562437987498679
1403636581359862412,5.973884291666666,0.3105439166666667,-1.6916471249999998,-0.0307177948351002,0.18709929581379212,0.046076692252650306
1403636581408348711,5.916678833333333,0.4903325,-1.6998193333333333,-0.04468042885105484,0.16545721308906244,0.027925268031909273
1403636581408524805,5.818612333333333,0.5066769166666666,-1.6834749166666665,-0.059341194567807204,0.1466076571675237,0.01117010721276371
1403636581408686907,5.867645583333333,0.43312704166666666,-1.6916471249999998,-0.0747000919853573,0.1270599695451872,-0.003490658503988659
1403636581408774448,5.892162208333333,0.3350605416666666,-1.6834749166666665,-0.08587019919812101,0.1117010721276371,-0.014660765716752367
1403636581408934482,5.88399,0.20430520833333332,-1.7079915416666664,-0.09145525280450287,0.09704030641088471,-0.032114058236695664
1403636581409020775,5.93302325,0.11441091666666667,-1.7815414166666665,-0.09285151620609833,0.08307767239493008,-0.039793506945470715
1403636581409112486,5.916678833333333,0.07354987499999999,-1.838746875,-0.09494591130849153,0.07260569688296412,-0.03839724354387525
1403636581409266670,5.867645583333333,0.122583125,-1.7897136249999999,-0.09564404300928926,0.05585053606381855,-0.031415926535897934
1403636581409423211,5.794095708333333,0.057205458333333334,-1.7488525833333333,-0.09634217471008698,0.04817108735504349,-0.02722713633111154
1403636581409575982,5.8104401249999995,-0.06537766666666667,-1.6834749166666665,-0.09285151620609833,0.029321531433504733,-0.020943951023931952
1403636581458358409,5.802267916666667,-0.11441091666666667,-1.61809725,-0.08726646259971647,0.010471975511965976,-0.01117010721276371
1403636581458438650,5.834956749999999,-0.15527195833333335,-1.5363751666666667,-0.07888888219014369,-0.005585053606381855,-0.006283185307179587
1403636581458528699,5.965712083333332,-0.17161637500000002,-1.4464808749999998,-0.06981317007977318,-0.024434609527920613,-0.004886921905584123
1403636581458616203,5.990228708333333,-0.13892754166666665,-1.3811032083333332,-0.05864306286700947,-0.04328416544945937,-0.0041887902047863905
1403636581458779496,5.998400916666666,-0.057205458333333334,-1.3320699583333333,-0.050963614158234416,-0.05235987755982988,-0.006981317007977318
1403636581458940387,6.055606375,-0.024516625,-1.348414375,-0.041189770347066175,-0.05864306286700947,-0.02024581932313422
1403636581459101413,6.047434166666666,0.04086104166666667,-1.4464808749999998,-0.041887902047863905,-0.07120943348136866,-0.03700098014227979
1403636581459258391,5.990228708333333,0.057205458333333334,-1.4464808749999998,-0.04677482395344803,-0.08587019919812101,-0.05305800926062762
1403636581459413883,5.93302325,0.057205458333333334,-1.5854084166666664,-0.047472955654245766,-0.09494591130849153,-0.06073745796940267
1403636581459565936,5.998400916666666,0.13075533333333333,-1.7161637499999998,-0.048869219055841226,-0.1096066770252439,-0.07051130178057091
1403636581509210165,5.990228708333333,0.196133,-1.8060580416666667,-0.05375614096142535,-0.12775810124598494,-0.0767944870877505
1403636581509304067,6.0801229999999995,0.17161637500000002,-1.9531577916666665,-0.057246799465414,-0.14032447186034408,-0.07819075048934597
1403636581509342860,6.202706124999999,0.08989429166666667,-2.0593964999999996,-0.0635299847725936,-0.15289084247470325,-0.07888888219014369
1403636581509378435,6.317117041666666,0.04086104166666667,-2.0512242916666668,-0.06213372137099814,-0.1605702911834783,-0.07888888219014369
1403636581509413845,6.398839124999999,-0.024516625,-1.9940188333333333,-0.06073745796940267,-0.16824973989225336,-0.07051130178057091
1403636581509449420,6.578627708333332,-0.122583125,-1.9695022083333333,-0.060039326268604934,-0.17872171540421936,-0.06213372137099814
1403636581509479909,6.676694208333332,-0.07354987499999999,-1.9204689583333332,-0.05305800926062762,-0.19128808601857852,-0.0439822971502571
1403636581509510537,6.725727458333332,-0.07354987499999999,-1.7488525833333333,-0.04468042885105484,-0.20455258833373544,-0.025132741228718346
1403636581509597785,6.856482791666667,0.032688833333333334,-1.6262694583333333,-0.039793506945470715,-0.2059488517353309,-0.0020943951023931952
1403636581509696653,6.921860458333333,0.11441091666666667,-1.5036863333333332,-0.039793506945470715,-0.21851522234969004,0.02583087292951608
1403636581558368141,6.9300326666666665,0.196133,-1.3320699583333333,-0.03769911184307752,-0.22130774915288098,0.04817108735504349
1403636581558542983,6.938204874999999,0.08989429166666667,-1.2176590416666666,-0.04328416544945937,-0.22270401255447644,0.06422811647339133
1403636581558705468,6.962721499999999,0.0,-1.2585200833333332,-0.0439822971502571,-0.2241002759560719,0.07958701389094143
1403636581558791457,6.946377083333333,-0.122583125,-1.2340034583333332,-0.04328416544945937,-0.2234021442552742,0.0879645943005142
1403636581559027671,6.872827208333333,-0.29419949999999995,-1.348414375,-0.03560471674068433,-0.2192133540504878,0.10053096491487339
1403636581559185043,6.848310583333333,-0.3023717083333333,-1.593580625,-0.027925268031909273,-0.21572269554649914,0.11379546723003027
1403636581559346175,6.733899666666666,-0.29419949999999995,-1.7488525833333333,-0.023038346126325153,-0.21642082724729686,0.12985249634837812
1403636581559430912,6.71755525,-0.318716125,-1.9122967499999999,-0.024434609527920613,-0.2199114857512855,0.1514945790731078
1403636581559594946,6.987238125,-0.3105439166666667,-2.1411185833333333,-0.023736477827122883,-0.2331759880664424,0.15917402778188286
1403636581559681077,7.2487487916666655,-0.17161637500000002,-2.3045627499999997,-0.023736477827122883,-0.24434609527920614,0.16336281798666924
1403636581608801005,7.461226208333334,0.032688833333333334,-2.40262925,-0.025132741228718346,-0.24504422698000386,0.15987215948268058
1403636581608904166,7.820803375,0.23699404166666665,-2.476179125,-0.019547687622336492,-0.25132741228718347,0.15638150097869194
1403636581608942088,8.09048625,0.4004382083333333,-2.5252123749999997,-0.013264502315156905,-0.2548180707911721,0.1556833692778942
1403636581608979866,8.278447041666666,0.40861041666666664,-2.4434902916666665,-0.00767944870877505,-0.25761059759436306,0.15219271077390556
1403636581609011584,8.474580041666666,0.2860272916666666,-2.4843513333333336,0.0,-0.249931148885588,0.1466076571675237
1403636581609084937,8.523613291666665,0.13892754166666665,-2.459834708333333,0.017453292519943295,-0.2457423586808016,0.14032447186034408
1403636581609190118,8.425546791666665,0.032688833333333334,-2.4516625,0.04328416544945937,-0.23876104167282428,0.1291543646475804
1403636581609424990,8.196724958333332,0.0,-2.3944570416666666,0.057246799465414,-0.23457225146803787,0.11239920382843484
1403636581609461900,8.065969625,0.0,-2.3862848333333333,0.07051130178057091,-0.22479840765686968,0.09773843811168245
1403636581609496073,7.9433865,0.04086104166666667,-2.378112625,0.0747000919853573,-0.22689280275926282,0.09354964790689606
1403636581659387124,7.771770125,-0.10623870833333333,-2.3535959999999996,0.08307767239493008,-0.22200588085367873,0.09075712110370514
1403636581659427343,7.7472535,-0.21247741666666667,-2.4434902916666665,0.08726646259971647,-0.2150245638457014,0.1075122819228507
1403636581659465252,7.779942333333333,-0.20430520833333332,-2.4843513333333336,0.08936085770210968,-0.20734511513692636,0.1291543646475804
1403636581659558361,7.820803375,-0.11441091666666667,-2.549729,0.08587019919812101,-0.19198621771937624,0.14800392056911915
1403636581659598331,7.984247541666667,0.10623870833333333,-2.7131731666666665,0.07190756518216637,-0.18011797880581482,0.16615534478986016
1403636581659633895,8.131347291666666,0.392266,-2.7703786249999998,0.04956735075663895,-0.16824973989225336,0.18570303241219666
1403636581659667527,8.213069375,0.6537766666666667,-2.8357562916666668,0.024434609527920613,-0.16406094968746698,0.2017600615305445
1403636581659699324,8.441891208333333,0.6864655000000001,-2.8357562916666668,-0.0020943951023931952,-0.1668534764906579,0.210835773640915
1403636581659762824,8.834157208333334,0.6782932916666666,-2.8929617499999996,-0.02652900463031381,-0.17243853009703977,0.20734511513692636
1403636581659797117,9.152873333333332,0.5720545833333333,-2.8766173333333334,-0.041189770347066175,-0.17523105690023066,0.1850049007113989
1403636581708332345,9.406211791666665,0.40861041666666664,-2.8602729166666667,-0.05166174585903216,-0.16406094968746698,0.153588974175501
1403636581708416563,9.553311541666666,0.34323275000000003,-2.9256505833333333,-0.046076692252650306,-0.1556833692778942,0.11798425743481668
1403636581708572999,9.528794916666666,0.40861041666666664,-2.966511625,-0.03420845333908886,-0.1445132620651305,0.08237954069413235
1403636581708733424,9.324489708333333,0.4004382083333333,-2.974683833333333,-0.021642082724729686,-0.12775810124598494,0.04258603374866164
1403636581708898781,9.193734375,0.32688833333333334,-3.0318892916666664,-0.0153588974175501,-0.12636183784438945,0.005585053606381855
1403636581708983732,8.932223708333334,0.196133,-3.0645781249999997,-0.003490658503988659,-0.12147491593880534,-0.028623399732707
1403636581709073052,8.67888525,-0.13075533333333333,-3.0645781249999997,0.012566370614359173,-0.11798425743481668,-0.04677482395344803
1403636581709163364,8.507268875,-0.318716125,-3.1463002083333333,0.032114058236695664,-0.11798425743481668,-0.056548667764616284
1403636581709319229,8.376513541666666,-0.367749375,-3.1054391666666663,0.05515240436302082,-0.12007865253720987,-0.04258603374866164
1403636581709401560,8.229413791666666,-0.2778550833333333,-3.0564059166666664,0.0747000919853573,-0.10890854532444616,-0.0153588974175501
1403636581758379186,8.311135875,-0.13892754166666665,-3.0318892916666664,0.09075712110370514,-0.10053096491487339,0.04049163864626844
1403636581758557882,8.441891208333333,-0.008172208333333333,-3.0482337083333335,0.09354964790689606,-0.08726646259971647,0.09285151620609833
1403636581758640931,8.490924458333334,0.08172208333333333,-3.0318892916666664,0.08936085770210968,-0.07609635538695278,0.15009831567151233
1403636581758731100,8.662540833333333,-0.024516625,-3.0645781249999997,0.08098327729253688,-0.06073745796940267,0.19128808601857852
1403636581758890965,8.785123958333333,-0.08989429166666667,-3.0727503333333335,0.07609635538695278,-0.046076692252650306,0.21572269554649914
1403636581758983435,8.866846041666665,-0.16344416666666667,-3.0809225416666663,0.06771877497737998,-0.039095375244672985,0.22130774915288098
1403636581759140442,9.07115125,-0.13075533333333333,-3.162644625,0.05305800926062762,-0.03630284844148206,0.20106192982974677
1403636581759226533,9.349006333333334,-0.04903325,-3.317916583333333,0.039793506945470715,-0.03839724354387525,0.1759291886010284
1403636581759395134,9.373522958333332,0.032688833333333334,-3.4486719166666666,0.024434609527920613,-0.03769911184307752,0.13823007675795088
1403636581759547879,9.430728416666666,-0.13075533333333333,-3.4568441249999995,0.0153588974175501,-0.033510321638291124,0.09564404300928926
1403636581808871043,9.398039583333333,-0.32688833333333334,-3.5794272499999997,0.016755160819145562,-0.03560471674068433,0.05864306286700947
1403636581808970494,9.340834124999999,-0.465815875,-3.6366327083333334,0.025132741228718346,-0.03560471674068433,0.039793506945470715
1403636581809071817,9.152873333333332,-0.5720545833333333,-3.6856659583333333,0.05166174585903216,-0.024434609527920613,0.032812189937493394
1403636581809165423,9.013945791666666,-0.6456044583333332,-3.8082490833333327,0.07400196028455958,-0.01884955592153876,0.02583087292951608
1403636581809200746,8.858673833333333,-0.5557101666666666,-3.8654545416666664,0.09773843811168245,-0.019547687622336492,0.027925268031909273
1403636581809291487,8.629852,-0.4494714583333333,-3.800076875,0.11868238913561441,-0.025132741228718346,0.039095375244672985
1403636581809339378,8.515441083333332,-0.4004382083333333,-3.751043625,0.1340412865531645,-0.032114058236695664,0.05515240436302082
1403636581809441772,8.564474333333333,-0.2860272916666666,-3.6529771249999996,0.14730578886832138,-0.04537856055185257,0.08098327729253688
1403636581809477840,8.662540833333333,-0.18796079166666665,-3.4650163333333333,0.15428710587629874,-0.060039326268604934,0.11588986233242347
1403636581809514705,8.850501625,-0.18796079166666665,-3.260711125,0.15777776438028737,-0.06562437987498679,0.143116998663535
1403636581858946538,9.201906583333333,-0.06537766666666667,-3.1463002083333333,0.15777776438028737,-0.06841690667817772,0.16406094968746698
1403636581858991738,9.389867375,0.04086104166666667,-3.0482337083333335,0.153588974175501,-0.0635299847725936,0.17174039839624203
1403636581860037170,9.422556208333333,0.16344416666666667,-2.9011339583333333,0.13892820845874865,-0.050963614158234416,0.15917402778188286
1403636581860077606,9.455245041666666,0.17978858333333333,-2.8357562916666668,0.11100294042683936,-0.05026548245743669,0.14032447186034408
1403636581860164986,9.389867375,0.24516625,-2.7867230416666664,0.08447393579652555,-0.056548667764616284,0.11938052083641214
1403636581860201685,9.234595416666666,0.21247741666666667,-2.8766173333333334,0.05864306286700947,-0.06073745796940267,0.09843656981248018
1403636581860236971,9.250939833333334,0.16344416666666667,-3.0972669583333334,0.029321531433504733,-0.060039326268604934,0.08587019919812101
1403636581860271216,9.201906583333333,0.13075533333333333,-3.260711125,0.0006981317007977319,-0.06702064327658225,0.07958701389094143
1403636581860403152,9.16921775,-0.0980665,-3.3832942499999996,-0.019547687622336492,-0.0747000919853573,0.07819075048934597
1403636581860438261,9.128356708333332,-0.392266,-3.415983083333333,-0.028623399732707,-0.08377580409572781,0.08237954069413235
1403636581909085037,9.16921775,-0.7518431666666666,-3.4813607499999994,-0.023038346126325153,-0.10402162341886204,0.08237954069413235
1403636581909123962,9.210078791666666,-0.9561483749999999,-3.538566208333333,-0.0027925268031909274,-0.11938052083641214,0.09494591130849153
1403636581909213688,9.316317499999998,-0.9643205833333333,-3.6448049166666663,0.023736477827122883,-0.1291543646475804,0.12077678423800758
1403636581909250030,9.5124505,-0.8825985,-3.67749375,0.04537856055185257,-0.14381513036433274,0.14172073526193954
1403636581909293820,9.577828166666666,-0.6701210833333332,-3.571255041666667,0.07330382858376185,-0.1514945790731078,0.16615534478986016
1403636581909325132,9.626861416666666,-0.5230213333333333,-3.505877375,0.08587019919812101,-0.15707963267948966,0.1850049007113989
1403636581909401312,9.716755708333332,-0.4739880833333333,-3.4404997083333333,0.09354964790689606,-0.17034413499464657,0.19198621771937624
1403636581909504064,9.765788958333333,-0.29419949999999995,-3.3751220416666667,0.09634217471008698,-0.1850049007113989,0.19198621771937624
1403636581909588429,9.733100125,-0.14709974999999997,-3.366949833333333,0.09285151620609833,-0.18919369091618532,0.18989182261698306
1403636581909620823,9.782133375,-0.008172208333333333,-3.391466458333333,0.07888888219014369,-0.19617500792416265,0.18919369091618532
1403636581958319570,9.716755708333332,0.2533384583333333,-3.4078108749999996,0.05585053606381855,-0.20525072003453312,0.182212373908208
1403636581958438424,9.716755708333332,0.34323275000000003,-3.4813607499999994,0.027925268031909273,-0.21432643214490363,0.17662732030182612
1403636581958531878,9.675894666666666,0.3840937916666667,-3.530394,-0.009773843811168246,-0.21572269554649914,0.16336281798666924
1403636581958693627,9.765788958333333,0.3105439166666667,-3.693838166666666,-0.048869219055841226,-0.21711895894809458,0.1424188669627373
1403636581958851694,9.716755708333332,0.17161637500000002,-3.7346992083333332,-0.08307767239493008,-0.22479840765686968,0.12356931104119852
1403636581958942525,9.675894666666666,0.024516625,-3.6448049166666663,-0.11868238913561441,-0.23108159296404923,0.1096066770252439
1403636581959101014,9.724927916666667,-0.18796079166666665,-3.546738416666667,-0.1291543646475804,-0.24294983187761068,0.10122909661567112
1403636581959188307,9.798477791666667,-0.269682875,-3.4650163333333333,-0.13334315485236678,-0.2548180707911721,0.09983283321407566
1403636581959352266,9.880199875,-0.43312704166666666,-3.3506054166666663,-0.1291543646475804,-0.2701769682087222,0.10681415022205297
1403636581959437819,10.092677291666664,-0.5883989999999999,-3.268883333333333,-0.11868238913561441,-0.27715828521669955,0.12426744274199628
1403636582009322698,10.190743791666666,-0.5720545833333333,-3.219850083333333,-0.09634217471008698,-0.2813470754214859,0.1445132620651305
1403636582009413690,10.182571583333333,-0.5475379583333333,-3.178989041666666,-0.0747000919853573,-0.27995081201989047,0.16755160819145562
1403636582009505329,10.313326916666666,-0.392266,-3.268883333333333,-0.05515240436302082,-0.27995081201989047,0.182212373908208
1403636582009541062,10.223432625,-0.15527195833333335,-3.334261,-0.04328416544945937,-0.2792526803190927,0.19338248112097173
1403636582009628450,10.092677291666664,0.008172208333333333,-3.4404997083333333,-0.041887902047863905,-0.27995081201989047,0.1954768762233649
1403636582009690476,10.051816249999998,0.10623870833333333,-3.5794272499999997,-0.048869219055841226,-0.28832839242946323,0.1850049007113989
1403636582009779066,10.010955208333332,0.13075533333333333,-3.7673880416666665,-0.06702064327658225,-0.30159289474462014,0.1626646862858715
1403636582009826002,9.978266375,0.122583125,-3.8899711666666663,-0.08377580409572781,-0.30997047515419296,0.13683381335635544
1403636582009860773,9.961921958333333,0.04086104166666667,-3.9880376666666666,-0.10332349171806432,-0.3127630019573839,0.11239920382843484
1403636582009948570,10.019127416666667,-0.04903325,-4.175998458333333,-0.11938052083641214,-0.31974431896536115,0.08098327729253688
1403636582059237794,10.019127416666667,-0.13892754166666665,-4.233203916666667,-0.13124875974997358,-0.3218387140677544,0.057246799465414
1403636582059273757,10.059988458333333,-0.3105439166666667,-4.314926,-0.13543754995475996,-0.31904618726456346,0.03490658503988659
1403636582059364336,10.141710541666667,-0.45764366666666667,-4.3721314583333335,-0.1361356816555577,-0.3232349774693498,0.020943951023931952
1403636582059400174,10.190743791666666,-0.4739880833333333,-4.347614833333333,-0.12566370614359174,-0.3218387140677544,0.017453292519943295
1403636582059491422,10.264293666666665,-0.43312704166666666,-4.2822371666666665,-0.11030480872604163,-0.3218387140677544,0.02234021442552742
1403636582059527310,10.378704583333333,-0.4494714583333333,-4.175998458333333,-0.09773843811168245,-0.3267256359733385,0.0439822971502571
1403636582059559810,10.607526416666667,-0.40861041666666664,-4.143309625,-0.07958701389094143,-0.3323106895797203,0.06492624817418906
1403636582059647114,10.721937333333331,-0.40861041666666664,-4.094276375,-0.0614355896702004,-0.3309144261781249,0.08237954069413235
1403636582059734280,10.967103583333333,-0.416782625,-4.118792999999999,-0.03839724354387525,-0.3295181627765294,0.0991347015132779
1403636582059765862,11.13054775,-0.35957716666666667,-4.151481833333333,-0.019547687622336492,-0.3218387140677544,0.10611601852125524
1403636582109200940,11.138719958333333,-0.24516625,-4.126965208333333,-0.006283185307179587,-0.31904618726456346,0.1075122819228507
1403636582109247038,11.081514499999999,-0.13075533333333333,-4.2168595,0.006283185307179587,-0.3127630019573839,0.10402162341886204
1403636582109334933,11.065170083333333,-0.06537766666666667,-4.3312704166666665,0.00767944870877505,-0.31974431896536115,0.0879645943005142
1403636582109371343,10.934414749999998,0.04086104166666667,-4.396648083333333,0.011868238913561441,-0.31974431896536115,0.07609635538695278
1403636582109406331,10.885381500000001,-0.07354987499999999,-4.535575625,0.005585053606381855,-0.3204424506661589,0.06492624817418906
1403636582109493422,10.885381500000001,-0.196133,-4.649986541666666,0.0006981317007977319,-0.3246312408709453,0.05305800926062762
1403636582109581256,10.811831625,-0.18796079166666665,-4.75622525,0.0013962634015954637,-0.3295181627765294,0.03700098014227979
1403636582109615497,10.803659416666665,-0.2778550833333333,-4.7807418749999995,0.0020943951023931952,-0.3267256359733385,0.028623399732707
1403636582109702673,10.926242541666667,-0.4004382083333333,-4.886980583333333,0.006981317007977318,-0.3274237676741362,0.016755160819145562
1403636582109735775,11.024309041666667,-0.44129925,-4.95235825,0.013962634015954637,-0.3204424506661589,0.01117010721276371
1403636582159193499,11.122375541666667,-0.4985047083333333,-4.927841624999999,0.02234021442552742,-0.3141592653589793,0.009075712110370514
1403636582159250041,11.277647499999999,-0.5965712083333333,-5.009563708333333,0.029321531433504733,-0.3029891581462156,0.0153588974175501
1403636582159283917,11.383886208333333,-0.5311935416666667,-4.993219291666667,0.03839724354387525,-0.30159289474462014,0.02722713633111154
1403636582159376770,11.416575041666665,-0.5475379583333333,-4.95235825,0.04677482395344803,-0.29740410453983374,0.047472955654245766
1403636582159415665,11.539158166666667,-0.5066769166666666,-4.9114972083333335,0.06073745796940267,-0.2848377339254746,0.07330382858376185
1403636582159476518,11.669913499999998,-0.3840937916666667,-4.85429175,0.06981317007977318,-0.28064894372068816,0.10471975511965977
1403636582159562808,11.776152208333334,-0.318716125,-4.837947333333333,0.07260569688296412,-0.2743657584135086,0.1319468914507713
1403636582159595894,11.808841041666666,-0.269682875,-4.870636166666666,0.08168140899333462,-0.2590068609959585,0.14102260356114182
1403636582159678579,11.792496624999998,-0.14709974999999997,-4.95235825,0.0879645943005142,-0.2436479635784084,0.14590952546672595
1403636582159713943,11.759807791666667,-0.016344416666666667,-4.927841624999999,0.08517206749732328,-0.23457225146803787,0.14102260356114182
1403636582209156987,11.669913499999998,0.057205458333333334,-4.944186041666666,0.08517206749732328,-0.22689280275926282,0.12356931104119852
1403636582209250540,11.645396875,0.04903325,-4.95235825,0.07539822368615504,-0.22968532956245377,0.10192722831646883
1403636582209290108,11.604535833333333,0.057205458333333334,-4.95235825,0.07190756518216637,-0.2331759880664424,0.08168140899333462
1403636582209324724,11.702602333333333,0.008172208333333333,-4.95235825,0.06562437987498679,-0.23527038316883564,0.06283185307179587
1403636582209411777,11.874218708333334,-0.04086104166666667,-5.042252541666667,0.06213372137099814,-0.23736477827122882,0.04258603374866164
1403636582209447202,12.021318458333333,-0.057205458333333334,-5.066769166666667,0.0635299847725936,-0.2303834612632515,0.03839724354387525
1403636582209532634,12.119384958333333,-0.122583125,-5.066769166666667,0.06073745796940267,-0.2192133540504878,0.031415926535897934
1403636582209568777,12.152073791666666,-0.15527195833333335,-4.993219291666667,0.06422811647339133,-0.20664698343612864,0.03839724354387525
1403636582209603093,12.176590416666667,-0.11441091666666667,-5.009563708333333,0.06981317007977318,-0.19198621771937624,0.04677482395344803
1403636582209634281,12.143901583333331,0.016344416666666667,-5.042252541666667,0.06632251157578452,-0.18570303241219666,0.056548667764616284
1403636582258307794,12.103040541666665,-0.016344416666666667,-4.968702666666667,0.06422811647339133,-0.17243853009703977,0.06492624817418906
1403636582258484828,12.176590416666667,-0.008172208333333333,-5.017735916666667,0.05585053606381855,-0.16615534478986016,0.06702064327658225
1403636582258646246,12.168418208333332,0.032688833333333334,-5.034080333333333,0.04956735075663895,-0.1605702911834783,0.07260569688296412
1403636582258733998,12.184762625,-0.07354987499999999,-5.0013914999999995,0.047472955654245766,-0.14730578886832138,0.07819075048934597
1403636582259009216,12.258312499999999,-0.04086104166666667,-5.017735916666667,0.041189770347066175,-0.14032447186034408,0.07819075048934597
1403636582259092569,12.307345749999998,0.07354987499999999,-5.042252541666667,0.03700098014227979,-0.12985249634837812,0.07330382858376185
1403636582259186765,12.315517958333333,-0.008172208333333333,-5.0504247499999995,0.032812189937493394,-0.1228711793404008,0.06841690667817772
1403636582259339182,12.4544455,-0.04086104166666667,-5.14849125,0.02722713633111154,-0.11239920382843484,0.06283185307179587
1403636582259497299,12.4544455,-0.06537766666666667,-5.189352291666666,0.02024581932313422,-0.10681415022205297,0.057246799465414
1403636582259581220,12.405412249999998,-0.16344416666666667,-5.181180083333333,0.024434609527920613,-0.09494591130849153,0.06213372137099814
1403636582308516053,12.462617708333331,-0.20430520833333332,-5.222041125,0.027925268031909273,-0.08447393579652555,0.0635299847725936
1403636582308616801,12.560684208333331,-0.29419949999999995,-5.377313083333333,0.03769911184307752,-0.0767944870877505,0.06422811647339133
1403636582308705132,12.495306541666666,-0.32688833333333334,-5.434518541666667,0.04817108735504349,-0.06841690667817772,0.07051130178057091
1403636582308795061,12.527995375,-0.3840937916666667,-5.508068416666666,0.060039326268604934,-0.05026548245743669,0.07400196028455958
1403636582308880899,12.462617708333331,-0.35140495833333335,-5.573446083333333,0.06213372137099814,-0.04049163864626844,0.0747000919853573
1403636582308967775,12.315517958333333,-0.29419949999999995,-5.5407572499999995,0.0614355896702004,-0.03490658503988659,0.06981317007977318
1403636582309053722,12.266484708333332,-0.269682875,-5.597962708333332,0.06213372137099814,-0.024434609527920613,0.06911503837897544
1403636582309138809,12.20927925,-0.2860272916666666,-5.597962708333332,0.059341194567807204,-0.0153588974175501,0.07330382858376185
1403636582309223869,12.192934833333334,-0.23699404166666665,-5.663340375,0.05515240436302082,-0.006283185307179587,0.07958701389094143
1403636582309311888,12.119384958333333,-0.269682875,-5.606134916666666,0.05235987755982988,0.003490658503988659,0.08726646259971647
1403636582369762948,12.0621795,-0.29419949999999995,-5.557101666666666,0.05375614096142535,0.030019663134302467,0.09634217471008698
1403636582369809674,11.996801833333333,-0.220649625,-5.548929458333332,0.04677482395344803,0.04537856055185257,0.11100294042683936
1403636582369864309,11.8660465,-0.220649625,-5.459035166666666,0.04677482395344803,0.06562437987498679,0.11798425743481668
1403636582369899937,11.808841041666666,-0.26151066666666667,-5.434518541666667,0.041887902047863905,0.08028514559173915,0.12217304763960307
1403636582369979877,11.751635583333332,-0.23699404166666665,-5.426346333333333,0.03700098014227979,0.09354964790689606,0.11938052083641214
1403636582370027358,11.661741291666667,-0.318716125,-5.377313083333333,0.04049163864626844,0.10192722831646883,0.114493598930828
1403636582370063982,11.653569083333332,-0.3840937916666667,-5.459035166666666,0.03769911184307752,0.124965574442794,0.10471975511965977
1403636582370099080,11.563674791666667,-0.3350605416666666,-5.410001916666666,0.03769911184307752,0.1340412865531645,0.10262536001726656
1403636582370133817,11.416575041666665,-0.3023717083333333,-5.3201076249999995,0.039793506945470715,0.15289084247470325,0.09983283321407566
1403636582370222952,11.359369583333333,-0.29419949999999995,-5.279246583333333,0.039095375244672985,0.17243853009703977,0.10122909661567112
1403636582411728628,11.204097625,-0.3105439166666667,-5.222041125,0.039095375244672985,0.1850049007113989,0.09983283321407566
1403636582411814827,11.114203333333332,-0.269682875,-5.14849125,0.0439822971502571,0.2059488517353309,0.09983283321407566
1403636582412137128,10.942586958333331,-0.23699404166666665,-5.083113583333333,0.039793506945470715,0.22759093446006054,0.0942477796076938
1403636582412231399,10.844520458333331,-0.15527195833333335,-5.083113583333333,0.039095375244672985,0.24504422698000386,0.08936085770210968
1403636582412325703,10.6892485,-0.016344416666666667,-5.017735916666667,0.03630284844148206,0.2555162024919699,0.09285151620609833
1403636582412419380,10.550320958333334,0.024516625,-4.944186041666666,0.028623399732707,0.27296949501191314,0.0879645943005142
1403636582412521376,10.525804333333332,0.0980665,-4.903325,0.01815142422074103,0.28553586562627226,0.08656833089891874
1403636582412607970,10.4931155,0.17161637500000002,-4.837947333333333,0.008377580409572781,0.29391344603584507,0.08098327729253688
1403636582412693786,10.411393416666668,0.122583125,-4.797086291666667,-0.0013962634015954637,0.3043854215478111,0.06841690667817772
1403636582412786001,10.419565624999999,0.07354987499999999,-4.748053041666666,-0.009773843811168246,0.3134611336581816,0.060039326268604934
1403636582458878727,10.386876791666666,0.057205458333333334,-4.641814333333333,-0.016057029118347832,0.31904618726456346,0.05375614096142535
1403636582458958359,10.321499124999999,0.032688833333333334,-4.527403416666666,-0.019547687622336492,0.3274237676741362,0.05585053606381855
1403636582459727664,10.256121458333332,-0.11441091666666667,-4.4211647083333325,-0.02024581932313422,0.3302162944773272,0.06422811647339133
1403636582459818630,10.272465875,-0.17978858333333333,-4.355787041666666,-0.011868238913561441,0.33510321638291124,0.07888888219014369
1403636582459905923,10.109021708333332,-0.18796079166666665,-4.208687291666666,-0.0027925268031909274,0.33719761148530447,0.09983283321407566
1403636582459993754,10.051816249999998,-0.18796079166666665,-4.1024485833333335,0.0041887902047863905,0.335801348083709,0.11938052083641214
1403636582460080867,10.059988458333333,-0.14709974999999997,-4.1024485833333335,0.009075712110370514,0.3323106895797203,0.1270599695451872
1403636582460168153,10.059988458333333,-0.07354987499999999,-4.0615875416666665,0.009773843811168246,0.3288200310757317,0.1270599695451872
1403636582460266472,10.109021708333332,-0.04086104166666667,-4.069759749999999,0.004886921905584123,0.33510321638291124,0.11309733552923257
1403636582460299611,10.158054958333333,0.057205458333333334,-4.135137416666667,0.0006981317007977319,0.335801348083709,0.10262536001726656
1403636582508788467,10.100849499999999,0.15527195833333335,-4.135137416666667,-0.01117010721276371,0.33300882128051806,0.08517206749732328
1403636582508872546,10.002782999999999,0.3023717083333333,-4.135137416666667,-0.016755160819145562,0.32602750427254074,0.0635299847725936
1403636582509112031,9.961921958333333,0.21247741666666667,-4.16782625,-0.025132741228718346,0.3183480555637657,0.041189770347066175
1403636582509676907,9.978266375,0.22882183333333334,-4.208687291666666,-0.04049163864626844,0.30857421175259747,0.023736477827122883
1403636582509714787,9.929233125,0.26151066666666667,-4.175998458333333,-0.05305800926062762,0.29949849964222697,0.008377580409572781
1403636582509811945,9.896544291666666,0.17161637500000002,-4.143309625,-0.059341194567807204,0.289026524130261,-0.0041887902047863905
1403636582509902735,9.872027666666666,0.220649625,-4.110620791666666,-0.06492624817418906,0.2813470754214859,-0.01884955592153876
1403636582509938915,9.831166624999998,0.11441091666666667,-4.086104166666667,-0.06911503837897544,0.27296949501191314,-0.02024581932313422
1403636582510027242,9.822994416666667,-0.057205458333333334,-4.118792999999999,-0.0747000919853573,0.2659881780039358,-0.023736477827122883
1403636582510119302,9.822994416666667,-0.04086104166666667,-4.110620791666666,-0.07819075048934597,0.2611012560983517,-0.02024581932313422
1403636582558594368,9.716755708333332,-0.0980665,-4.045243125,-0.08028514559173915,0.2583087292951608,-0.00767944870877505
1403636582558703455,9.569655958333334,-0.16344416666666667,-3.9880376666666666,-0.08447393579652555,0.2569124658935653,0.012566370614359173
1403636582558797669,9.545139333333333,-0.3023717083333333,-3.947176625,-0.08098327729253688,0.2457423586808016,0.03420845333908886
1403636582558890466,9.496106083333332,-0.2860272916666666,-3.930832208333333,-0.07190756518216637,0.2408554367752175,0.0614355896702004
1403636582558981602,9.340834124999999,-0.21247741666666667,-3.930832208333333,-0.06841690667817772,0.23596851486963336,0.07888888219014369
1403636582559068880,9.275456458333332,-0.11441091666666667,-3.906315583333333,-0.0635299847725936,0.23108159296404923,0.09005898940290741
1403636582559155113,9.210078791666666,0.06537766666666667,-3.930832208333333,-0.06213372137099814,0.22759093446006054,0.09285151620609833
1403636582559240835,9.1201845,0.13892754166666665,-3.9144877916666663,-0.07190756518216637,0.22270401255447644,0.08726646259971647
1403636582559327914,9.038462416666666,0.13892754166666665,-3.881798958333333,-0.08028514559173915,0.21781709064889232,0.0747000919853573
1403636582559424504,9.005773583333333,0.20430520833333332,-3.8164212916666664,-0.08447393579652555,0.20804324683772407,0.06702064327658225
1403636582609141048,8.97308475,0.2533384583333333,-3.800076875,-0.0879645943005142,0.1982694030265558,0.057246799465414
1403636582609245864,9.07115125,0.24516625,-3.8082490833333327,-0.08656833089891874,0.18709929581379212,0.047472955654245766
1403636582609281620,9.218250999999999,0.3350605416666666,-3.8245934999999998,-0.09494591130849153,0.17453292519943295,0.032114058236695664
1403636582609368030,9.349006333333334,0.392266,-3.8082490833333327,-0.10611601852125524,0.16406094968746698,0.0041887902047863905
1403636582609404030,9.471589458333332,0.40861041666666664,-3.7919046666666665,-0.11798425743481668,0.1556833692778942,-0.023038346126325153
1403636582609489353,9.553311541666666,0.416782625,-3.7837324583333327,-0.12775810124598494,0.1466076571675237,-0.03769911184307752
1403636582609522988,9.487933875,0.3023717083333333,-3.742871416666666,-0.13962634015954636,0.14381513036433274,-0.04677482395344803
1403636582609610199,9.46341725,0.08989429166666667,-3.718354791666666,-0.13753194505715316,0.13543754995475996,-0.0439822971502571
1403636582609645421,9.471589458333332,-0.08172208333333333,-3.77556025,-0.13683381335635544,0.13264502315156904,-0.027925268031909273
1403636582609729752,9.381695166666667,-0.15527195833333335,-3.7919046666666665,-0.13264502315156904,0.1270599695451872,-0.0020943951023931952
1403636582658991405,9.26728425,-0.17978858333333333,-3.7919046666666665,-0.11938052083641214,0.13055062804917586,0.03420845333908886
1403636582659035337,9.185562166666665,-0.14709974999999997,-3.7919046666666665,-0.11728612573401893,0.12217304763960307,0.056548667764616284
1403636582659068987,9.054806833333332,0.016344416666666667,-3.8082490833333327,-0.11309733552923257,0.12147491593880534,0.08377580409572781
1403636582659136051,8.997601374999999,0.04086104166666667,-3.8409379166666664,-0.11379546723003027,0.12007865253720987,0.10053096491487339
1403636582659418893,8.866846041666665,0.07354987499999999,-3.8409379166666664,-0.12147491593880534,0.11868238913561441,0.09564404300928926
1403636582659462127,8.809640583333332,0.122583125,-3.8082490833333327,-0.12845623294678266,0.11728612573401893,0.08237954069413235
1403636582659552457,8.605335375,0.122583125,-3.751043625,-0.12985249634837812,0.11519173063162574,0.07539822368615504
1403636582659588514,8.613507583333332,0.07354987499999999,-3.77556025,-0.124965574442794,0.11588986233242347,0.06283185307179587
1403636582659624612,8.613507583333332,0.04903325,-3.759215833333333,-0.11868238913561441,0.11728612573401893,0.05864306286700947
1403636582659711021,8.588990958333333,0.08172208333333333,-3.693838166666666,-0.1054178868204575,0.1165879940332212,0.06283185307179587
1403636582709130855,8.564474333333333,0.0,-3.6284604999999996,-0.0879645943005142,0.1228711793404008,0.06981317007977318
1403636582709246144,8.597163166666666,0.06537766666666667,-3.538566208333333,-0.07051130178057091,0.12007865253720987,0.08098327729253688
1403636582709282171,8.654368624999998,0.13892754166666665,-3.4731885416666666,-0.05794493116621174,0.11798425743481668,0.08936085770210968
1403636582709315881,8.7279185,0.14709974999999997,-3.4078108749999996,-0.04956735075663895,0.11868238913561441,0.09704030641088471
1403636582709417844,8.866846041666665,0.21247741666666667,-3.342433208333333,-0.04537856055185257,0.11100294042683936,0.09564404300928926
1403636582709453408,9.103840083333333,0.2860272916666666,-3.2443667083333327,-0.041189770347066175,0.1117010721276371,0.09843656981248018
1403636582709488013,9.218250999999999,0.2860272916666666,-3.178989041666666,-0.04328416544945937,0.11309733552923257,0.10192722831646883
1403636582709574588,9.430728416666666,0.24516625,-3.1217835833333334,-0.04537856055185257,0.11519173063162574,0.10262536001726656
1403636582709610066,9.569655958333334,0.2533384583333333,-3.0809225416666663,-0.050963614158234416,0.11728612573401893,0.11030480872604163
1403636582709641607,9.635033625,0.2778550833333333,-3.0318892916666664,-0.05166174585903216,0.12077678423800758,0.12077678423800758
1403636582761930164,9.667722458333333,0.2778550833333333,-3.0645781249999997,-0.05794493116621174,0.1228711793404008,0.13124875974997358
1403636582762040419,9.724927916666667,0.3105439166666667,-3.113611375,-0.06632251157578452,0.12985249634837812,0.14730578886832138
1403636582762130724,9.610517,0.2778550833333333,-3.170816833333333,-0.07400196028455958,0.13823007675795088,0.153588974175501
1403636582762251619,9.545139333333333,0.2778550833333333,-3.3015721666666664,-0.08168140899333462,0.14870205226991687,0.15219271077390556
1403636582762343637,9.349006333333334,0.26151066666666667,-3.415983083333333,-0.08098327729253688,0.153588974175501,0.15777776438028737
1403636582762431739,9.062979041666667,0.196133,-3.4813607499999994,-0.0879645943005142,0.1626646862858715,0.1626646862858715
1403636582762532675,8.817812791666666,0.122583125,-3.514049583333333,-0.09005898940290741,0.16824973989225336,0.16196655458507375
1403636582762567521,8.638024208333333,0.08989429166666667,-3.530394,-0.09354964790689606,0.16824973989225336,0.15847589608108512
1403636582762653904,8.441891208333333,0.13075533333333333,-3.4650163333333333,-0.09494591130849153,0.16824973989225336,0.15219271077390556
1403636582762740247,8.360169125,0.0980665,-3.4241552916666667,-0.09354964790689606,0.16824973989225336,0.15498523757709648
1403636582808797079,8.368341333333333,0.196133,-3.366949833333333,-0.09285151620609833,0.17243853009703977,0.1647590813882647
1403636582809025353,8.417374583333332,0.269682875,-3.3015721666666664,-0.09634217471008698,0.17174039839624203,0.1780235837034216
1403636582809119786,8.548129916666667,0.196133,-3.2280222916666665,-0.10262536001726656,0.17732545200262387,0.18430676901060122
1403636582809213406,8.801468374999999,0.14709974999999997,-3.18716125,-0.11030480872604163,0.19338248112097173,0.18919369091618532
1403636582809251372,8.989429166666666,0.07354987499999999,-3.211677875,-0.11519173063162574,0.20455258833373544,0.19128808601857852
1403636582809285553,9.152873333333332,0.07354987499999999,-3.2280222916666665,-0.11519173063162574,0.2199114857512855,0.19338248112097173
1403636582809592602,9.324489708333333,0.22882183333333334,-3.2280222916666665,-0.11938052083641214,0.2303834612632515,0.1884955592153876
1403636582809632793,9.479761666666667,0.35140495833333335,-3.309744375,-0.12636183784438945,0.23736477827122882,0.18709929581379212
1403636582809669748,9.471589458333332,0.416782625,-3.3015721666666664,-0.14381513036433274,0.23527038316883564,0.18151424220741028
1403636582809763248,9.586000375,0.367749375,-3.309744375,-0.16406094968746698,0.2324778563656447,0.1780235837034216
1403636582858417638,9.733100125,0.29419949999999995,-3.415983083333333,-0.182212373908208,0.23596851486963336,0.1759291886010284
1403636582858797510,9.741272333333333,0.23699404166666665,-3.4486719166666666,-0.18919369091618532,0.24225170017681294,0.1731366617978375
1403636582858936003,9.675894666666666,0.032688833333333334,-3.4323274999999995,-0.19687313962496036,0.2541199390903744,0.16615534478986016
1403636582859028604,9.577828166666666,0.016344416666666667,-3.4813607499999994,-0.19896753472735357,0.2638937829015426,0.16406094968746698
1403636582859115240,9.26728425,-0.008172208333333333,-3.4813607499999994,-0.19896753472735357,0.2743657584135086,0.16545721308906244
1403636582859206503,8.9240515,-0.08172208333333333,-3.4486719166666666,-0.20245819323134223,0.29042278753185646,0.16964600329384885
1403636582859297571,8.646196416666667,-0.18796079166666665,-3.546738416666667,-0.19757127132575814,0.29740410453983374,0.18081611050661253
1403636582859332191,8.3356525,-0.29419949999999995,-3.6121160833333334,-0.1850049007113989,0.3022910264454179,0.19198621771937624
1403636582859432228,8.033280791666666,-0.3350605416666666,-3.6039438749999997,-0.1731366617978375,0.3078760800517997,0.1982694030265558
1403636582859526221,7.878008833333333,-0.32688833333333334,-3.5549106249999998,-0.15917402778188286,0.31695179216217023,0.20036379812894903
1403636582908519295,7.812631166666666,-0.220649625,-3.5222217916666665,-0.15498523757709648,0.317649923862968,0.19477874452256716
1403636582908907024,7.755425708333333,-0.17978858333333333,-3.4404997083333333,-0.15289084247470325,0.3225368457685521,0.1864011641129944
1403636582909010889,7.763597916666666,-0.2860272916666666,-3.366949833333333,-0.1494001839707146,0.3295181627765294,0.18151424220741028
1403636582909102337,7.861664416666666,-0.3350605416666666,-3.2770555416666665,-0.14870205226991687,0.3337069529813158,0.18081611050661253
1403636582909189788,7.9188698749999995,-0.367749375,-3.195333458333333,-0.14172073526193954,0.3399901382884954,0.1864011641129944
1403636582909280979,7.927042083333333,-0.392266,-3.0727503333333335,-0.12985249634837812,0.3497639820996636,0.19338248112097173
1403636582909368246,8.057797416666666,-0.2533384583333333,-3.0318892916666664,-0.11588986233242347,0.3497639820996636,0.20525072003453312
1403636582909455393,8.082314041666667,-0.057205458333333334,-2.999200458333333,-0.10890854532444616,0.3574434308084387,0.21362830044410594
1403636582909558807,8.221241583333333,0.0,-2.974683833333333,-0.1117010721276371,0.3665191429188092,0.20943951023931953
1403636582909621607,8.3356525,0.008172208333333333,-2.99102825,-0.11588986233242347,0.3672172746196069,0.19408061282176942
1403636582958645437,8.319308083333333,0.04086104166666667,-2.9501672083333332,-0.11868238913561441,0.36861353802120245,0.16196655458507375
1403636582959170242,8.164036124999999,0.024516625,-2.8847895416666667,-0.114493598930828,0.3672172746196069,0.12985249634837812
1403636582959267298,8.09048625,-0.06537766666666667,-2.8357562916666668,-0.1096066770252439,0.36372661611561824,0.10471975511965977
1403636582959306355,7.992419749999999,-0.15527195833333335,-2.9338227916666666,-0.10053096491487339,0.3588396942100341,0.08656833089891874
1403636582959341546,7.869836625,-0.3105439166666667,-2.941995,-0.08866272600131193,0.35814156250923646,0.07888888219014369
1403636582959379257,7.730909083333333,-0.44129925,-2.966511625,-0.07400196028455958,0.36861353802120245,0.08098327729253688
1403636582959412084,7.4693984166666665,-0.42495483333333334,-2.9174783749999995,-0.0614355896702004,0.3665191429188092,0.0942477796076938
1403636582959512637,7.240576583333333,-0.42495483333333334,-2.8439284999999996,-0.04956735075663895,0.364424747816416,0.10122909661567112
1403636582959547742,7.060788,-0.367749375,-2.8194118749999997,-0.04328416544945937,0.37070793312359557,0.10262536001726656
1403636582959641144,6.913688249999999,-0.35140495833333335,-2.729517583333333,-0.0439822971502571,0.3665191429188092,0.10402162341886204
1403636583009383271,6.823793958333333,-0.32688833333333334,-2.680484333333333,-0.05235987755982988,0.36582101121801147,0.10681415022205297
1403636583009419745,6.668522,-0.392266,-2.557901208333333,-0.06283185307179587,0.37070793312359557,0.11379546723003027
1403636583009544019,6.676694208333332,-0.42495483333333334,-2.5170401666666664,-0.07051130178057091,0.3728023282259888,0.12077678423800758
1403636583009610854,6.627660958333332,-0.34323275000000003,-2.4680069166666665,-0.07190756518216637,0.3728023282259888,0.13055062804917586
1403636583009700128,6.603144333333333,-0.24516625,-2.3944570416666666,-0.0767944870877505,0.3762929867299774,0.13473941825396224
1403636583009786880,6.684866416666666,-0.15527195833333335,-2.435318083333333,-0.07749261878854824,0.374896723328382,0.12775810124598494
1403636583009881610,6.684866416666666,-0.08172208333333333,-2.3372515833333334,-0.08447393579652555,0.3714060648243933,0.11379546723003027
1403636583009918309,6.603144333333333,-0.13892754166666665,-2.1738074166666665,-0.08307767239493008,0.3588396942100341,0.09843656981248018
1403636583009985098,6.6603497916666665,-0.17978858333333333,-2.239185083333333,-0.0767944870877505,0.3427826650916863,0.07958701389094143
1403636583010073519,6.684866416666666,-0.13892754166666665,-2.239185083333333,-0.06771877497737998,0.3267256359733385,0.06283185307179587
1403636583058511928,6.684866416666666,-0.15527195833333335,-2.214668458333333,-0.060039326268604934,0.31974431896536115,0.05235987755982988
1403636583058555319,6.594972124999999,-0.15527195833333335,-2.1983240416666665,-0.050963614158234416,0.3141592653589793,0.03839724354387525
1403636583058802146,6.513250041666667,-0.16344416666666667,-2.1247741666666666,-0.039095375244672985,0.2960078411382383,0.023736477827122883
1403636583058837409,6.317117041666666,-0.15527195833333335,-1.9776744166666664,-0.023038346126325153,0.2778564169174973,0.0153588974175501
1403636583059150466,6.22722275,-0.196133,-1.8060580416666667,-0.012566370614359173,0.2583087292951608,0.010471975511965976
1403636583059185327,6.22722275,-0.20430520833333332,-1.7733692083333334,0.0,0.23596851486963336,0.012566370614359173
1403636583059335793,6.276256,-0.23699404166666665,-1.7570247916666666,0.011868238913561441,0.21851522234969004,0.0153588974175501
1403636583059487361,6.333461458333334,-0.3023717083333333,-1.6998193333333333,0.021642082724729686,0.21013764194011728,0.030019663134302467
1403636583059638515,6.545938874999999,-0.3350605416666666,-1.7897136249999999,0.023736477827122883,0.20734511513692636,0.04468042885105484
1403636583059788000,6.562283291666667,-0.29419949999999995,-1.8224024583333331,0.02583087292951608,0.20734511513692636,0.05794493116621174
1403636583109214871,6.4805612083333335,-0.29419949999999995,-1.8060580416666667,0.02722713633111154,0.1982694030265558,0.06841690667817772
1403636583109350431,6.513250041666667,-0.24516625,-1.7570247916666666,0.020943951023931952,0.19058995431778078,0.07888888219014369
1403636583109387623,6.456044583333333,-0.14709974999999997,-1.8060580416666667,0.0153588974175501,0.17523105690023066,0.08168140899333462
1403636583109432882,6.415183541666666,-0.008172208333333333,-1.8142302499999998,0.006981317007977318,0.15219271077390556,0.07888888219014369
1403636583109498048,6.407011333333333,0.04903325,-1.8224024583333331,-0.006981317007977318,0.13683381335635544,0.07819075048934597
1403636583109573401,6.464216791666666,0.22882183333333334,-1.838746875,-0.021642082724729686,0.12077678423800758,0.06981317007977318
1403636583109643341,6.415183541666666,0.34323275000000003,-1.7733692083333334,-0.039793506945470715,0.10821041362364843,0.05585053606381855
1403636583109730348,6.292600416666667,0.3023717083333333,-1.6753027083333332,-0.0635299847725936,0.09704030641088471,0.032114058236695664
1403636583109856657,6.22722275,0.18796079166666665,-1.6099250416666664,-0.08028514559173915,0.08936085770210968,0.010471975511965976
1403636583109888924,6.1209840416666665,0.04903325,-1.5608917916666667,-0.08517206749732328,0.07609635538695278,-0.006981317007977318
1403636583159083118,6.006573125,-0.024516625,-1.5200307499999999,-0.08517206749732328,0.06632251157578452,-0.025132741228718346
1403636583159127043,5.957539875,-0.11441091666666667,-1.593580625,-0.08377580409572781,0.06073745796940267,-0.03560471674068433
1403636583160179276,5.826784541666666,-0.13892754166666665,-1.6344416666666666,-0.08447393579652555,0.05235987755982988,-0.039793506945470715
1403636583160274243,5.663340375,-0.16344416666666667,-1.6916471249999998,-0.08168140899333462,0.05026548245743669,-0.033510321638291124
1403636583160313581,5.646995958333333,-0.269682875,-1.765197,-0.0767944870877505,0.039095375244672985,-0.02024581932313422
1403636583160401480,5.622479333333334,-0.2533384583333333,-1.7897136249999999,-0.07260569688296412,0.033510321638291124,-0.010471975511965976
1403636583160490318,5.597962708333332,-0.20430520833333332,-1.8060580416666667,-0.07120943348136866,0.023736477827122883,-0.0041887902047863905
1403636583160524991,5.696029208333333,-0.220649625,-1.8305746666666667,-0.07888888219014369,0.020943951023931952,0.0006981317007977319
1403636583160613074,5.916678833333333,-0.13075533333333333,-1.871435708333333,-0.08307767239493008,0.014660765716752367,0.0020943951023931952
1403636583160646690,6.006573125,-0.06537766666666667,-1.8305746666666667,-0.08656833089891874,0.006981317007977318,0.010471975511965976
1403636583209357106,6.104639625,-0.0980665,-1.7815414166666665,-0.09354964790689606,0.0,0.005585053606381855
1403636583209449873,6.32528925,-0.08989429166666667,-1.7488525833333333,-0.10053096491487339,-0.006981317007977318,0.005585053606381855
1403636583209487971,6.513250041666667,-0.08172208333333333,-1.6344416666666666,-0.0991347015132779,-0.01884955592153876,0.0027925268031909274
1403636583209574952,6.701210833333333,-0.20430520833333332,-1.5608917916666667,-0.09285151620609833,-0.019547687622336492,-0.00767944870877505
1403636583209663069,6.799277333333333,-0.3759215833333333,-1.5363751666666667,-0.07888888219014369,-0.027925268031909273,-0.012566370614359173
1403636583209697700,6.766588499999999,-0.4739880833333333,-1.5608917916666667,-0.05794493116621174,-0.027925268031909273,-0.016057029118347832
1403636583209784618,6.684866416666666,-0.5148491249999999,-1.5527195833333332,-0.029321531433504733,-0.030019663134302467,-0.014660765716752367
1403636583209826471,6.676694208333332,-0.5230213333333333,-1.6507860833333332,-0.0020943951023931952,-0.023038346126325153,-0.0041887902047863905
1403636583209913242,6.562283291666667,-0.48216029166666663,-1.6998193333333333,0.020943951023931952,-0.025132741228718346,0.0013962634015954637
1403636583210285231,6.366150291666666,-0.4903325,-1.7079915416666664,0.041887902047863905,-0.03490658503988659,0.006981317007977318
1403636583258395823,6.317117041666666,-0.4985047083333333,-1.8142302499999998,0.06283185307179587,-0.03560471674068433,0.012566370614359173
1403636583258753270,6.317117041666666,-0.40861041666666664,-1.871435708333333,0.07819075048934597,-0.04468042885105484,0.020943951023931952
1403636583258789695,6.292600416666667,-0.22882183333333334,-1.9041245416666663,0.0879645943005142,-0.050963614158234416,0.023736477827122883
1403636583258823409,6.366150291666666,-0.04903325,-1.9776744166666664,0.08447393579652555,-0.05026548245743669,0.03769911184307752
1403636583259134180,6.5704555000000004,0.26151066666666667,-2.0185354583333335,0.07609635538695278,-0.05235987755982988,0.048869219055841226
1403636583259168876,6.815621749999999,0.40861041666666664,-2.0103632499999997,0.059341194567807204,-0.05375614096142535,0.05445427266222308
1403636583259407553,6.987238125,0.4739880833333333,-1.9940188333333333,0.0307177948351002,-0.04817108735504349,0.060039326268604934
1403636583259442628,7.2487487916666655,0.48216029166666663,-1.936813375,0.008377580409572781,-0.05375614096142535,0.06073745796940267
1403636583259593177,7.4693984166666665,0.43312704166666666,-1.8632635,-0.009075712110370514,-0.059341194567807204,0.060039326268604934
1403636583259743545,7.681875833333333,0.3350605416666666,-1.8060580416666667,-0.023736477827122883,-0.06632251157578452,0.05026548245743669
1403636583309234755,7.927042083333333,0.17978858333333333,-1.8959523333333332,-0.039793506945470715,-0.060039326268604934,0.041887902047863905
1403636583309272883,8.025108583333333,0.07354987499999999,-1.9204689583333332,-0.03839724354387525,-0.056548667764616284,0.03490658503988659
1403636583309308913,7.984247541666667,-0.07354987499999999,-1.9449855833333332,-0.03560471674068433,-0.05305800926062762,0.033510321638291124
1403636583309343255,7.902525458333333,-0.220649625,-1.9531577916666665,-0.025132741228718346,-0.048869219055841226,0.030019663134302467
1403636583309377473,7.7472535,-0.269682875,-1.9776744166666664,-0.009773843811168246,-0.047472955654245766,0.03420845333908886
1403636583309407044,7.428537374999999,-0.26151066666666667,-1.96133,0.00767944870877505,-0.05375614096142535,0.04537856055185257
1403636583309476627,7.314126458333333,-0.269682875,-1.9449855833333332,0.033510321638291124,-0.05794493116621174,0.07190756518216637
1403636583309512135,7.273265416666667,-0.13075533333333333,-1.96133,0.06911503837897544,-0.06702064327658225,0.09843656981248018
1403636583309549747,7.232404375,0.18796079166666665,-1.96133,0.0879645943005142,-0.07260569688296412,0.124965574442794
1403636583309658375,7.240576583333333,0.43312704166666666,-1.9531577916666665,0.09215338450530061,-0.07958701389094143,0.13892820845874865
1403636583358409821,7.379504124999999,0.5965712083333333,-2.0267076666666664,0.0942477796076938,-0.07819075048934597,0.13962634015954636
1403636583358686998,7.477570624999999,0.6537766666666667,-2.1002575416666667,0.08377580409572781,-0.07609635538695278,0.13264502315156904
1403636583358914194,7.534776083333333,0.5883989999999999,-2.181979625,0.0747000919853573,-0.07260569688296412,0.11868238913561441
1403636583359140867,7.632842583333333,0.5802267916666666,-2.3699404166666667,0.06981317007977318,-0.07260569688296412,0.09773843811168245
1403636583359442337,7.6491869999999995,0.5965712083333333,-2.5252123749999997,0.05515240436302082,-0.07120943348136866,0.07609635538695278
1403636583359600141,7.690048041666667,0.5230213333333333,-2.7131731666666665,0.041189770347066175,-0.06702064327658225,0.05305800926062762
1403636583359824480,7.788114541666666,0.392266,-2.852100708333333,0.023736477827122883,-0.06562437987498679,0.02652900463031381
1403636583359988938,7.84532,0.2860272916666666,-2.8929617499999996,0.0027925268031909274,-0.06562437987498679,0.010471975511965976
1403636583360253484,7.820803375,0.0980665,-2.827584083333333,-0.009075712110370514,-0.07120943348136866,0.0020943951023931952
1403636583360295341,7.861664416666666,-0.06537766666666667,-2.6477955,-0.01117010721276371,-0.08028514559173915,0.010471975511965976
1403636583409283073,8.057797416666666,-0.196133,-2.4925235416666665,-0.0006981317007977319,-0.09005898940290741,0.032114058236695664
1403636583409318821,8.229413791666666,-0.23699404166666665,-2.3699404166666667,0.016755160819145562,-0.09354964790689606,0.06492624817418906
1403636583409409678,8.474580041666666,-0.2533384583333333,-2.3127349583333334,0.03769911184307752,-0.08656833089891874,0.09773843811168245
1403636583409446039,8.613507583333332,-0.122583125,-2.2963905416666663,0.0614355896702004,-0.0767944870877505,0.1270599695451872
1403636583409534904,8.605335375,0.04086104166666667,-2.239185083333333,0.07958701389094143,-0.06283185307179587,0.15009831567151233
1403636583409576561,8.490924458333334,0.13892754166666665,-2.2555295,0.09704030641088471,-0.05166174585903216,0.1647590813882647
1403636583409825434,8.351996916666666,0.2860272916666666,-2.3454237916666667,0.1117010721276371,-0.05375614096142535,0.16545721308906244
1403636583409915840,8.074141833333334,0.465815875,-2.459834708333333,0.12147491593880534,-0.06283185307179587,0.153588974175501
1403636583410005419,7.935214291666666,0.5720545833333333,-2.582417833333333,0.1228711793404008,-0.07539822368615504,0.12077678423800758
1403636583410041238,8.000591958333333,0.63743225,-2.8357562916666668,0.10890854532444616,-0.08447393579652555,0.07958701389094143
1403636583458401921,8.025108583333333,0.5883989999999999,-3.138128,0.08936085770210968,-0.09494591130849153,0.03490658503988659
1403636583458487643,7.984247541666667,0.40861041666666664,-3.334261,0.07120943348136866,-0.09564404300928926,0.0
1403636583458643587,7.976075333333333,0.07354987499999999,-3.415983083333333,0.056548667764616284,-0.08866272600131193,-0.032114058236695664
1403636583458731015,7.959730916666666,-0.21247741666666667,-3.4404997083333333,0.047472955654245766,-0.09564404300928926,-0.05235987755982988
1403636583458966639,8.008764166666666,-0.465815875,-3.317916583333333,0.04956735075663895,-0.10402162341886204,-0.05515240436302082
1403636583459053075,8.278447041666666,-0.6292600416666666,-3.18716125,0.06283185307179587,-0.11100294042683936,-0.04817108735504349
1403636583459143591,8.572646541666666,-0.5475379583333333,-3.0972669583333334,0.08098327729253688,-0.12217304763960307,-0.03769911184307752
1403636583459299936,8.817812791666666,-0.40861041666666664,-2.9093061666666666,0.09564404300928926,-0.13124875974997358,-0.014660765716752367
1403636583459457617,9.193734375,-0.2778550833333333,-2.680484333333333,0.11239920382843484,-0.1270599695451872,0.01884955592153876
1403636583459542523,9.430728416666666,-0.26151066666666667,-2.5170401666666664,0.1291543646475804,-0.1165879940332212,0.06562437987498679
1403636583509271469,9.545139333333333,-0.22882183333333334,-2.40262925,0.1445132620651305,-0.11239920382843484,0.0942477796076938
1403636583509308345,9.5124505,-0.15527195833333335,-2.3372515833333334,0.15079644737231007,-0.09983283321407566,0.11728612573401893
1403636583509397142,9.471589458333332,-0.057205458333333334,-2.40262925,0.14870205226991687,-0.0879645943005142,0.1270599695451872
1403636583509485338,9.316317499999998,0.11441091666666667,-2.4843513333333336,0.1445132620651305,-0.08447393579652555,0.1319468914507713
1403636583509521646,9.005773583333333,0.3023717083333333,-2.6477955,0.1270599695451872,-0.0879645943005142,0.11868238913561441
1403636583509557263,8.801468374999999,0.4494714583333333,-2.827584083333333,0.09843656981248018,-0.09005898940290741,0.10122909661567112
1403636583509643631,8.588990958333333,0.53936575,-2.9501672083333332,0.06562437987498679,-0.10122909661567112,0.07609635538695278
1403636583509679831,8.482752249999999,0.5557101666666666,-3.1054391666666663,0.029321531433504733,-0.1117010721276371,0.04677482395344803
1403636583509715676,8.507268875,0.44129925,-3.18716125,-0.0027925268031909274,-0.11938052083641214,0.009075712110370514
1403636583509744631,8.605335375,0.4004382083333333,-3.2770555416666665,-0.028623399732707,-0.13264502315156904,-0.028623399732707
1403636583559248416,8.768779541666666,0.34323275000000003,-3.334261,-0.04956735075663895,-0.13823007675795088,-0.0614355896702004
1403636583559342164,8.899534874999999,0.21247741666666667,-3.334261,-0.05305800926062762,-0.13962634015954636,-0.07260569688296412
1403636583559379480,9.095667875,0.16344416666666667,-3.342433208333333,-0.04817108735504349,-0.13753194505715316,-0.08028514559173915
1403636583559414570,9.16921775,0.06537766666666667,-3.219850083333333,-0.03560471674068433,-0.13962634015954636,-0.07190756518216637
1403636583559502048,9.201906583333333,-0.04086104166666667,-3.0727503333333335,-0.01815142422074103,-0.14521139376592823,-0.05864306286700947
1403636583559590901,9.283628666666665,-0.16344416666666667,-2.9501672083333332,0.008377580409572781,-0.1494001839707146,-0.0307177948351002
1403636583559626198,9.324489708333333,-0.220649625,-2.803067458333333,0.0307177948351002,-0.15917402778188286,-0.0006981317007977319
1403636583559658401,9.332661916666666,-0.16344416666666667,-2.6641399166666666,0.0439822971502571,-0.16336281798666924,0.027925268031909273
1403636583559744875,9.373522958333332,-0.23699404166666665,-2.549729,0.0439822971502571,-0.1647590813882647,0.04956735075663895
1403636583559776649,9.357178541666666,-0.318716125,-2.5252123749999997,0.04537856055185257,-0.16545721308906244,0.07120943348136866
1403636583608273441,9.259112041666667,-0.23699404166666665,-2.4843513333333336,0.039095375244672985,-0.15917402778188286,0.08587019919812101
1403636583608445261,9.087495666666666,-0.220649625,-2.5170401666666664,0.02234021442552742,-0.15638150097869194,0.1075122819228507
1403636583608610701,9.022118,-0.0980665,-2.5905900416666663,-0.004886921905584123,-0.15917402778188286,0.1096066770252439
1403636583608694302,8.956740333333332,0.032688833333333334,-2.6641399166666666,-0.039095375244672985,-0.16196655458507375,0.10192722831646883
1403636583608862389,8.899534874999999,0.14709974999999997,-2.811239666666667,-0.06981317007977318,-0.17523105690023066,0.07400196028455958
1403636583609023829,8.940395916666665,0.21247741666666667,-2.966511625,-0.1096066770252439,-0.19128808601857852,0.04258603374866164
1403636583609181453,8.97308475,0.2860272916666666,-3.1299557916666663,-0.1361356816555577,-0.1996656664281513,0.003490658503988659
1403636583609269096,9.030290208333332,0.35957716666666667,-3.3260887916666664,-0.15498523757709648,-0.20943951023931953,-0.031415926535897934
1403636583609425389,9.234595416666666,0.4004382083333333,-3.530394,-0.15917402778188286,-0.2199114857512855,-0.056548667764616284
1403636583609511453,9.161045541666667,0.196133,-3.563082833333333,-0.15847589608108512,-0.228987197861656,-0.07190756518216637
1403636583659352095,9.144701125,-0.14709974999999997,-3.530394,-0.1361356816555577,-0.24504422698000386,-0.060039326268604934
1403636583659445794,9.226423208333333,-0.416782625,-3.5957716666666664,-0.10122909661567112,-0.2590068609959585,-0.02583087292951608
1403636583659483020,9.299973083333333,-0.6701210833333332,-3.6529771249999996,-0.0439822971502571,-0.2736676267127109,0.003490658503988659
1403636583659517809,9.373522958333332,-0.8989429166666666,-3.6856659583333333,0.031415926535897934,-0.2876302607286655,0.041189770347066175
1403636583659608132,9.487933875,-0.980665,-3.726527,0.09005898940290741,-0.29112091923265415,0.07888888219014369
1403636583659641535,9.536967125,-0.8989429166666666,-3.7673880416666665,0.13962634015954636,-0.30019663134302466,0.114493598930828
1403636583659730411,9.5124505,-0.784532,-3.7346992083333332,0.17453292519943295,-0.30857421175259747,0.1514945790731078
1403636583659766039,9.561483749999999,-0.63743225,-3.751043625,0.19408061282176942,-0.314857397059777,0.18709929581379212
1403636583659850896,9.577828166666666,-0.3840937916666667,-3.6856659583333333,0.20315632493213995,-0.32812189937493397,0.2199114857512855
1403636583659920663,9.626861416666666,-0.16344416666666667,-3.5957716666666664,0.19757127132575814,-0.34487706019407954,0.24015730507441974
1403636583709027188,9.798477791666667,0.016344416666666667,-3.6284604999999996,0.17523105690023066,-0.35395277230445005,0.24853488548399255
1403636583709062812,9.912888708333332,0.22882183333333334,-3.6121160833333334,0.14800392056911915,-0.37070793312359557,0.23736477827122882
1403636583709156466,10.043644041666665,0.367749375,-3.6039438749999997,0.11309733552923257,-0.3797836452339661,0.21781709064889232
1403636583709191308,10.010955208333332,0.3840937916666667,-3.6284604999999996,0.08307767239493008,-0.3832743037379548,0.20734511513692636
1403636583709278628,10.100849499999999,0.3759215833333333,-3.7346992083333332,0.057246799465414,-0.3860668305411457,0.20734511513692636
1403636583709340714,10.068160666666666,0.3840937916666667,-3.726527,0.041189770347066175,-0.39304814754912304,0.21432643214490363
1403636583709428274,10.059988458333333,0.269682875,-3.751043625,0.03490658503988659,-0.40212385965949354,0.22060961745208327
1403636583709469793,10.133538333333334,0.18796079166666665,-3.8409379166666664,0.039095375244672985,-0.40770891326587533,0.22968532956245377
1403636583709553808,10.149882749999998,0.07354987499999999,-3.898143375,0.047472955654245766,-0.41957715217943675,0.2324778563656447
1403636583709585790,10.100849499999999,-0.04086104166666667,-3.92266,0.06283185307179587,-0.42446407408502096,0.23457225146803787
1403636583759022852,10.117193916666666,-0.13892754166666665,-3.979865458333333,0.07958701389094143,-0.43353978619539146,0.23876104167282428
1403636583759066796,10.100849499999999,-0.016344416666666667,-4.094276375,0.09145525280450287,-0.4384267081009756,0.24294983187761068
1403636583760038022,9.953749749999998,0.0980665,-4.0125542916666666,0.10053096491487339,-0.44261549830576197,0.24155356847601517
1403636583760078157,9.953749749999998,0.057205458333333334,-3.947176625,0.09843656981248018,-0.4454080251089529,0.22619467105846514
1403636583760164236,10.002782999999999,-0.008172208333333333,-3.9635210416666666,0.09145525280450287,-0.4544837372193234,0.21223203704251048
1403636583760197413,10.010955208333332,-0.024516625,-3.955348833333333,0.09285151620609833,-0.4558800006209189,0.2115339053417127
1403636583760282710,10.002782999999999,-0.13892754166666665,-3.9390044166666667,0.08866272600131193,-0.45169121041613247,0.210835773640915
1403636583760315913,10.059988458333333,-0.17161637500000002,-3.947176625,0.08307767239493008,-0.45029494701453704,0.21223203704251048
1403636583760400210,10.027299625,-0.11441091666666667,-4.077931958333333,0.08028514559173915,-0.439822971502571,0.21711895894809458
1403636583760433842,9.994610791666668,-0.0980665,-4.184170666666667,0.07400196028455958,-0.42516220578581865,0.2303834612632515
1403636583808248498,10.002782999999999,-0.08172208333333333,-4.274064958333334,0.06492624817418906,-0.4118977034706618,0.2408554367752175
1403636583808422419,9.921060916666667,-0.032688833333333334,-4.355787041666666,0.05235987755982988,-0.4084070449666731,0.24853488548399255
1403636583808666017,9.896544291666666,-0.06537766666666667,-4.4211647083333325,0.039793506945470715,-0.3937462792499207,0.2555162024919699
1403636583808701705,9.921060916666667,-0.11441091666666667,-4.437509125,0.02722713633111154,-0.39793506945470714,0.2527236756887789
1403636583809015904,10.019127416666667,-0.10623870833333333,-4.519231208333333,0.01815142422074103,-0.403520123061089,0.23108159296404923
1403636583809050825,10.092677291666664,-0.13075533333333333,-4.429336916666666,0.00767944870877505,-0.40212385965949354,0.20734511513692636
1403636583809292352,10.215260416666666,-0.20430520833333332,-4.339442625,0.0013962634015954637,-0.39514254265151627,0.18570303241219666
1403636583809326916,10.329671333333332,-0.21247741666666667,-4.290409374999999,-0.0013962634015954637,-0.38885935734433663,0.1647590813882647
1403636583809562397,10.239777041666667,-0.13892754166666665,-4.175998458333333,-0.003490658503988659,-0.3839724354387525,0.14172073526193954
1403636583809599968,10.313326916666666,-0.14709974999999997,-4.135137416666667,-0.0041887902047863905,-0.36861353802120245,0.12217304763960307
1403636583859137745,10.272465875,-0.11441091666666667,-4.126965208333333,-0.0006981317007977319,-0.35465090400524774,0.10611601852125524
1403636583859176223,10.117193916666666,-0.14709974999999997,-4.069759749999999,0.0020943951023931952,-0.3399901382884954,0.09704030641088471
1403636583859234073,9.994610791666668,-0.3023717083333333,-4.094276375,0.0041887902047863905,-0.3274237676741362,0.09215338450530061
1403636583859283637,9.872027666666666,-0.318716125,-4.200515083333333,0.009773843811168246,-0.317649923862968,0.09354964790689606
1403636583859333911,9.749444541666666,-0.29419949999999995,-4.274064958333334,0.008377580409572781,-0.31066860685499065,0.09773843811168245
1403636583859426445,9.741272333333333,-0.2860272916666666,-4.380303666666666,0.008377580409572781,-0.2918190509334519,0.10611601852125524
1403636583859492731,9.80665,-0.20430520833333332,-4.527403416666666,0.005585053606381855,-0.27646015351590175,0.09983283321407566
1403636583859581287,9.855683249999998,-0.032688833333333334,-4.609125499999999,-0.003490658503988659,-0.26529004630313807,0.09564404300928926
1403636583859624024,9.831166624999998,0.11441091666666667,-4.666330958333333,-0.01117010721276371,-0.25621433419276757,0.08447393579652555
1403636583859664738,9.880199875,0.13075533333333333,-4.731708625,-0.025132741228718346,-0.24783675378319478,0.07330382858376185
1403636583909019583,10.051816249999998,0.15527195833333335,-4.788914083333333,-0.03560471674068433,-0.24294983187761068,0.056548667764616284
1403636583909111305,10.149882749999998,0.07354987499999999,-4.772569666666667,-0.04677482395344803,-0.23596851486963336,0.03839724354387525
1403636583909204891,10.280638083333333,0.057205458333333334,-4.764397458333333,-0.05375614096142535,-0.22619467105846514,0.010471975511965976
1403636583909242260,10.427737833333332,0.016344416666666667,-4.8052585,-0.05585053606381855,-0.2199114857512855,-0.016057029118347832
1403636583909276602,10.476771083333333,0.057205458333333334,-4.764397458333333,-0.05445427266222308,-0.20874137853852182,-0.041887902047863905
1403636583909367286,10.533976541666666,-0.057205458333333334,-4.690847583333333,-0.05445427266222308,-0.1982694030265558,-0.05794493116621174
1403636583909402918,10.566665374999998,-0.196133,-4.731708625,-0.050963614158234416,-0.18291050560900574,-0.07400196028455958
1403636583909437008,10.566665374999998,-0.2778550833333333,-4.739880833333333,-0.04049163864626844,-0.17243853009703977,-0.07539822368615504
1403636583909521237,10.542148749999999,-0.4903325,-4.764397458333333,-0.02722713633111154,-0.16126842288427606,-0.07400196028455958
1403636583909555884,10.558493166666667,-0.5802267916666666,-4.829775124999999,-0.006981317007977318,-0.15009831567151233,-0.06283185307179587
1403636583959213229,10.525804333333332,-0.4985047083333333,-4.85429175,0.009773843811168246,-0.14800392056911915,-0.05375614096142535
1403636583959250075,10.509459916666668,-0.45764366666666667,-4.895152791666666,0.027925268031909273,-0.13473941825396224,-0.0439822971502571
1403636583959314789,10.44408225,-0.3759215833333333,-5.009563708333333,0.03769911184307752,-0.1291543646475804,-0.039095375244672985
1403636583959404229,10.468598874999998,-0.3105439166666667,-5.058596958333333,0.04677482395344803,-0.124965574442794,-0.03560471674068433
1403636583959440428,10.509459916666668,-0.3023717083333333,-5.123974625,0.04817108735504349,-0.11379546723003027,-0.03839724354387525
1403636583959475872,10.550320958333334,-0.3023717083333333,-5.173007875,0.04817108735504349,-0.1054178868204575,-0.04328416544945937
1403636583959562733,10.607526416666667,-0.2533384583333333,-5.173007875,0.048869219055841226,-0.10262536001726656,-0.05375614096142535
1403636583959604267,10.583009791666665,-0.17978858333333333,-5.132146833333333,0.04956735075663895,-0.09634217471008698,-0.060039326268604934
1403636583959688022,10.583009791666665,-0.3023717083333333,-5.140319041666666,0.04956735075663895,-0.09145525280450287,-0.06981317007977318
1403636583959721699,10.705592916666665,-0.3759215833333333,-5.140319041666666,0.05585053606381855,-0.08726646259971647,-0.07819075048934597
1403636584009337972,10.697420708333333,-0.42495483333333334,-5.0912857916666665,0.06283185307179587,-0.08028514559173915,-0.07539822368615504
1403636584009434213,10.811831625,-0.4903325,-5.025908124999999,0.06911503837897544,-0.07400196028455958,-0.06283185307179587
1403636584009471307,10.999792416666665,-0.5311935416666667,-5.0504247499999995,0.08377580409572781,-0.06702064327658225,-0.05375614096142535
1403636584009505991,10.999792416666665,-0.4985047083333333,-5.009563708333333,0.09494591130849153,-0.05864306286700947,-0.029321531433504733
1403636584009593130,11.056997874999999,-0.45764366666666667,-4.993219291666667,0.10681415022205297,-0.04468042885105484,-0.010471975511965976
1403636584009657619,11.187753208333334,-0.35140495833333335,-5.009563708333333,0.10890854532444616,-0.03630284844148206,0.009075712110370514
1403636584009749074,11.204097625,-0.269682875,-5.034080333333333,0.11100294042683936,-0.032812189937493394,0.020943951023931952
1403636584009816600,11.253130874999998,-0.22882183333333334,-4.976874874999999,0.11100294042683936,-0.02024581932313422,0.02652900463031381
1403636584009906860,11.293991916666666,-0.24516625,-5.0013914999999995,0.11239920382843484,-0.01884955592153876,0.032114058236695664
1403636584009948382,11.32668075,-0.20430520833333332,-5.042252541666667,0.11519173063162574,-0.013962634015954637,0.03700098014227979
1403636584058676479,11.244958666666667,-0.220649625,-5.017735916666667,0.12007865253720987,-0.00767944870877505,0.03839724354387525
1403636584058777716,11.244958666666667,-0.2860272916666666,-5.025908124999999,0.12845623294678266,0.005585053606381855,0.04049163864626844
1403636584058813749,11.22861425,-0.26151066666666667,-5.066769166666667,0.13683381335635544,0.011868238913561441,0.04328416544945937
1403636584058903750,11.114203333333332,-0.22882183333333334,-5.123974625,0.1466076571675237,0.01815142422074103,0.0439822971502571
1403636584058937828,11.13054775,-0.21247741666666667,-5.173007875,0.153588974175501,0.028623399732707,0.039095375244672985
1403636584059024468,11.155064374999998,-0.057205458333333334,-5.14849125,0.15219271077390556,0.025132741228718346,0.03630284844148206
1403636584059059411,11.155064374999998,0.032688833333333334,-5.0912857916666665,0.153588974175501,0.02652900463031381,0.032114058236695664
1403636584059146633,11.244958666666667,0.0980665,-5.034080333333333,0.14870205226991687,0.025132741228718346,0.02583087292951608
1403636584059179795,11.441091666666667,0.08172208333333333,-5.066769166666667,0.14172073526193954,0.019547687622336492,0.021642082724729686
1403636584059266945,11.547330375,0.13892754166666665,-4.927841624999999,0.1424188669627373,0.0153588974175501,0.023038346126325153
1403636584108234391,11.669913499999998,0.08989429166666667,-4.862463958333334,0.13962634015954636,0.016755160819145562,0.02722713633111154
1403636584108320215,11.882390916666665,0.13075533333333333,-4.8216029166666665,0.14102260356114182,0.020943951023931952,0.032114058236695664
1403636584108478925,11.996801833333333,0.13075533333333333,-4.75622525,0.14032447186034408,0.019547687622336492,0.04817108735504349
1403636584108566613,11.988629624999998,0.14709974999999997,-4.764397458333333,0.13543754995475996,0.028623399732707,0.0635299847725936
1403636584108802643,11.988629624999998,0.122583125,-4.764397458333333,0.1340412865531645,0.031415926535897934,0.07819075048934597
1403636584108892497,11.931424166666664,0.21247741666666667,-4.764397458333333,0.1319468914507713,0.0307177948351002,0.08656833089891874
1403636584109050884,11.800668833333333,0.17161637500000002,-4.788914083333333,0.12566370614359174,0.032114058236695664,0.10402162341886204
1403636584109140647,11.702602333333333,0.16344416666666667,-4.813430708333333,0.11379546723003027,0.030019663134302467,0.11100294042683936
1403636584109298602,11.620880249999999,0.14709974999999997,-4.862463958333334,0.10821041362364843,0.023038346126325153,0.10471975511965977
1403636584109381899,11.596363625,0.0980665,-4.895152791666666,0.09634217471008698,0.019547687622336492,0.09983283321407566
1403636584159149274,11.629052458333332,0.024516625,-4.960530458333333,0.08517206749732328,0.009773843811168246,0.08936085770210968
1403636584159185977,11.612708041666664,-0.024516625,-5.017735916666667,0.07888888219014369,0.009075712110370514,0.08307767239493008
1403636584159275365,11.604535833333333,-0.008172208333333333,-5.083113583333333,0.07888888219014369,0.010471975511965976,0.07330382858376185
1403636584159308628,11.629052458333332,-0.04903325,-5.066769166666667,0.07819075048934597,0.016057029118347832,0.06562437987498679
1403636584159403218,11.710774541666666,-0.032688833333333334,-5.132146833333333,0.07888888219014369,0.013962634015954637,0.05864306286700947
1403636584159438695,11.661741291666667,-0.024516625,-5.107630208333333,0.08237954069413235,0.014660765716752367,0.056548667764616284
1403636584159525684,11.735291166666666,-0.06537766666666667,-5.156663458333333,0.07888888219014369,0.016755160819145562,0.056548667764616284
1403636584159563290,11.898735333333333,-0.04086104166666667,-5.205696708333334,0.08028514559173915,0.017453292519943295,0.057246799465414
1403636584159599831,11.906907541666666,0.07354987499999999,-5.173007875,0.07958701389094143,0.014660765716752367,0.0614355896702004
1403636584159660684,11.898735333333333,0.17978858333333333,-5.107630208333333,0.0747000919853573,0.02024581932313422,0.0635299847725936
1403636584209007965,11.800668833333333,0.17161637500000002,-5.0912857916666665,0.06841690667817772,0.020943951023931952,0.06492624817418906
1403636584209047375,11.759807791666667,0.20430520833333332,-5.074941374999999,0.06073745796940267,0.01884955592153876,0.056548667764616284
1403636584209138597,11.604535833333333,0.07354987499999999,-5.042252541666667,0.048869219055841226,0.019547687622336492,0.05166174585903216
1403636584209172067,11.465608291666666,0.024516625,-5.017735916666667,0.04258603374866164,0.029321531433504733,0.048869219055841226
